"","X","Participant.Private.ID","Participant.Status","Task.Name","branch.53l8","display","Trial.Number","Reaction.Time","Attempt","Correct","valid","trial_type","music_reading_ability"
"1",28,6126428,"complete","block a","musicreaders","trial",1,2973.9,1,1,"neutral","neutral","musicreaders"
"2",40,6126428,"complete","block a","musicreaders","trial",2,2909.6,1,0,"invalid","invalid","musicreaders"
"3",52,6126428,"complete","block a","musicreaders","trial",3,1599.3,1,1,"neutral","neutral","musicreaders"
"4",64,6126428,"complete","block a","musicreaders","trial",4,1936,1,1,"neutral","neutral","musicreaders"
"5",76,6126428,"complete","block a","musicreaders","trial",5,1681.3,1,0,"valid","valid","musicreaders"
"6",88,6126428,"complete","block a","musicreaders","trial",6,4480.4,1,1,"valid","valid","musicreaders"
"7",100,6126428,"complete","block a","musicreaders","trial",7,2683.6,1,1,"valid","valid","musicreaders"
"8",112,6126428,"complete","block a","musicreaders","trial",8,1436.4,1,1,"valid","valid","musicreaders"
"9",124,6126428,"complete","block a","musicreaders","trial",9,1426.6,1,0,"valid","valid","musicreaders"
"10",136,6126428,"complete","block a","musicreaders","trial",10,2449.3,1,1,"invalid","invalid","musicreaders"
"11",148,6126428,"complete","block a","musicreaders","trial",11,2358.7,1,1,"valid","valid","musicreaders"
"12",160,6126428,"complete","block a","musicreaders","trial",12,2672.8,1,1,"valid","valid","musicreaders"
"13",172,6126428,"complete","block a","musicreaders","trial",13,2661.4,1,1,"valid","valid","musicreaders"
"14",184,6126428,"complete","block a","musicreaders","trial",14,1502.5,1,1,"valid","valid","musicreaders"
"15",196,6126428,"complete","block a","musicreaders","trial",15,1379.1,1,1,"valid","valid","musicreaders"
"16",208,6126428,"complete","block a","musicreaders","trial",16,2294.8,1,1,"neutral","neutral","musicreaders"
"17",220,6126428,"complete","block a","musicreaders","trial",17,2466.7,1,1,"invalid","invalid","musicreaders"
"18",232,6126428,"complete","block a","musicreaders","trial",18,2121.8,1,1,"valid","valid","musicreaders"
"19",244,6126428,"complete","block a","musicreaders","trial",19,1627.8,1,0,"valid","valid","musicreaders"
"20",256,6126428,"complete","block a","musicreaders","trial",20,1554.1,1,1,"valid","valid","musicreaders"
"21",268,6126428,"complete","block a","musicreaders","trial",21,1421,1,1,"valid","valid","musicreaders"
"22",280,6126428,"complete","block a","musicreaders","trial",22,1435.6,1,1,"invalid","invalid","musicreaders"
"23",292,6126428,"complete","block a","musicreaders","trial",23,2120.5,1,0,"valid","valid","musicreaders"
"24",322,6118099,"complete","block a","musicreaders","trial",1,1655.7,1,1,"valid","valid","musicreaders"
"25",334,6118099,"complete","block a","musicreaders","trial",2,1751.5,1,1,"valid","valid","musicreaders"
"26",346,6118099,"complete","block a","musicreaders","trial",3,8220.3,1,0,"valid","valid","musicreaders"
"27",358,6118099,"complete","block a","musicreaders","trial",4,2009.1,1,1,"invalid","invalid","musicreaders"
"28",370,6118099,"complete","block a","musicreaders","trial",5,1605.2,1,1,"valid","valid","musicreaders"
"29",382,6118099,"complete","block a","musicreaders","trial",6,4703.5,1,1,"valid","valid","musicreaders"
"30",394,6118099,"complete","block a","musicreaders","trial",7,3867.2,1,1,"valid","valid","musicreaders"
"31",406,6118099,"complete","block a","musicreaders","trial",8,3394.9,1,1,"valid","valid","musicreaders"
"32",418,6118099,"complete","block a","musicreaders","trial",9,8919.8,1,1,"neutral","neutral","musicreaders"
"33",430,6118099,"complete","block a","musicreaders","trial",10,3359.3,1,1,"valid","valid","musicreaders"
"34",442,6118099,"complete","block a","musicreaders","trial",11,5953.5,1,1,"neutral","neutral","musicreaders"
"35",454,6118099,"complete","block a","musicreaders","trial",12,2538.7,1,1,"valid","valid","musicreaders"
"36",466,6118099,"complete","block a","musicreaders","trial",13,2478.4,1,1,"valid","valid","musicreaders"
"37",478,6118099,"complete","block a","musicreaders","trial",14,3374.1,1,1,"valid","valid","musicreaders"
"38",490,6118099,"complete","block a","musicreaders","trial",15,4598.6,1,1,"invalid","invalid","musicreaders"
"39",502,6118099,"complete","block a","musicreaders","trial",16,2459.8,1,1,"valid","valid","musicreaders"
"40",514,6118099,"complete","block a","musicreaders","trial",17,4006.8,1,1,"neutral","neutral","musicreaders"
"41",526,6118099,"complete","block a","musicreaders","trial",18,1628.2,1,1,"valid","valid","musicreaders"
"42",538,6118099,"complete","block a","musicreaders","trial",19,1859,1,1,"invalid","invalid","musicreaders"
"43",550,6118099,"complete","block a","musicreaders","trial",20,1900,1,1,"neutral","neutral","musicreaders"
"44",562,6118099,"complete","block a","musicreaders","trial",21,4444.8,1,1,"valid","valid","musicreaders"
"45",574,6118099,"complete","block a","musicreaders","trial",22,2448.4,1,1,"valid","valid","musicreaders"
"46",586,6118099,"complete","block a","musicreaders","trial",23,4653.2,1,1,"invalid","invalid","musicreaders"
"70",911,5628783,"complete","block a","musicreaders","trial",1,4478,1,1,"invalid","invalid","musicreaders"
"71",923,5628783,"complete","block a","musicreaders","trial",2,1977,1,0,"valid","valid","musicreaders"
"72",935,5628783,"complete","block a","musicreaders","trial",3,1851,1,0,"valid","valid","musicreaders"
"73",947,5628783,"complete","block a","musicreaders","trial",4,1494,1,0,"invalid","invalid","musicreaders"
"74",959,5628783,"complete","block a","musicreaders","trial",5,5034,1,0,"neutral","neutral","musicreaders"
"75",971,5628783,"complete","block a","musicreaders","trial",6,1074,1,1,"valid","valid","musicreaders"
"76",983,5628783,"complete","block a","musicreaders","trial",7,2331,1,1,"valid","valid","musicreaders"
"77",995,5628783,"complete","block a","musicreaders","trial",8,2590,1,0,"neutral","neutral","musicreaders"
"78",1007,5628783,"complete","block a","musicreaders","trial",9,1758,1,0,"neutral","neutral","musicreaders"
"79",1019,5628783,"complete","block a","musicreaders","trial",10,13399,1,0,"invalid","invalid","musicreaders"
"80",1031,5628783,"complete","block a","musicreaders","trial",11,2723,1,0,"invalid","invalid","musicreaders"
"81",1043,5628783,"complete","block a","musicreaders","trial",12,6654,1,1,"valid","valid","musicreaders"
"82",1055,5628783,"complete","block a","musicreaders","trial",13,5465,1,1,"valid","valid","musicreaders"
"83",1067,5628783,"complete","block a","musicreaders","trial",14,2070,1,0,"valid","valid","musicreaders"
"84",1079,5628783,"complete","block a","musicreaders","trial",15,3215,1,0,"neutral","neutral","musicreaders"
"85",1091,5628783,"complete","block a","musicreaders","trial",16,3468,1,1,"valid","valid","musicreaders"
"86",1103,5628783,"complete","block a","musicreaders","trial",17,2399,1,1,"valid","valid","musicreaders"
"87",1115,5628783,"complete","block a","musicreaders","trial",18,3861,1,1,"valid","valid","musicreaders"
"88",1127,5628783,"complete","block a","musicreaders","trial",19,1424,1,1,"valid","valid","musicreaders"
"89",1139,5628783,"complete","block a","musicreaders","trial",20,2844,1,1,"valid","valid","musicreaders"
"90",1151,5628783,"complete","block a","musicreaders","trial",21,2656,1,0,"valid","valid","musicreaders"
"91",1163,5628783,"complete","block a","musicreaders","trial",22,2868,1,1,"valid","valid","musicreaders"
"92",1175,5628783,"complete","block a","musicreaders","trial",23,3622,1,1,"valid","valid","musicreaders"
"93",1205,5629186,"complete","block a","musicreaders","trial",1,1381,1,1,"valid","valid","musicreaders"
"94",1217,5629186,"complete","block a","musicreaders","trial",2,2478.7,1,1,"invalid","invalid","musicreaders"
"95",1229,5629186,"complete","block a","musicreaders","trial",3,12815.9,1,1,"valid","valid","musicreaders"
"96",1241,5629186,"complete","block a","musicreaders","trial",4,2558.6,1,1,"invalid","invalid","musicreaders"
"97",1253,5629186,"complete","block a","musicreaders","trial",5,1650.1,1,1,"valid","valid","musicreaders"
"98",1265,5629186,"complete","block a","musicreaders","trial",6,5059.6,1,1,"valid","valid","musicreaders"
"99",1277,5629186,"complete","block a","musicreaders","trial",7,2349.9,1,1,"valid","valid","musicreaders"
"100",1289,5629186,"complete","block a","musicreaders","trial",8,2478,1,1,"valid","valid","musicreaders"
"101",1301,5629186,"complete","block a","musicreaders","trial",9,4049.7,1,0,"neutral","neutral","musicreaders"
"102",1313,5629186,"complete","block a","musicreaders","trial",10,2687.8,1,1,"neutral","neutral","musicreaders"
"103",1325,5629186,"complete","block a","musicreaders","trial",11,2115.4,1,1,"valid","valid","musicreaders"
"104",1337,5629186,"complete","block a","musicreaders","trial",12,2704.3,1,0,"neutral","neutral","musicreaders"
"105",1349,5629186,"complete","block a","musicreaders","trial",13,6807.3,1,1,"valid","valid","musicreaders"
"106",1361,5629186,"complete","block a","musicreaders","trial",14,1696.1,1,1,"valid","valid","musicreaders"
"107",1373,5629186,"complete","block a","musicreaders","trial",15,1470.5,1,1,"valid","valid","musicreaders"
"108",1385,5629186,"complete","block a","musicreaders","trial",16,2524.5,1,0,"invalid","invalid","musicreaders"
"109",1397,5629186,"complete","block a","musicreaders","trial",17,1163.6,1,1,"valid","valid","musicreaders"
"110",1409,5629186,"complete","block a","musicreaders","trial",18,1654.1,1,1,"valid","valid","musicreaders"
"111",1421,5629186,"complete","block a","musicreaders","trial",19,1603.9,1,1,"valid","valid","musicreaders"
"112",1433,5629186,"complete","block a","musicreaders","trial",20,1818.5,1,1,"valid","valid","musicreaders"
"113",1445,5629186,"complete","block a","musicreaders","trial",21,2472.4,1,1,"valid","valid","musicreaders"
"114",1457,5629186,"complete","block a","musicreaders","trial",22,4064.4,1,1,"neutral","neutral","musicreaders"
"115",1469,5629186,"complete","block a","musicreaders","trial",23,1700.4,1,1,"invalid","invalid","musicreaders"
"116",1499,5645045,"complete","block a","musicreaders","trial",1,2560.9,1,1,"invalid","invalid","musicreaders"
"117",1511,5645045,"complete","block a","musicreaders","trial",2,3878,1,1,"valid","valid","musicreaders"
"118",1523,5645045,"complete","block a","musicreaders","trial",3,2441.9,1,1,"valid","valid","musicreaders"
"119",1535,5645045,"complete","block a","musicreaders","trial",4,1942.3,1,1,"invalid","invalid","musicreaders"
"120",1547,5645045,"complete","block a","musicreaders","trial",5,2736.2,1,1,"valid","valid","musicreaders"
"121",1559,5645045,"complete","block a","musicreaders","trial",6,1586.8,1,1,"valid","valid","musicreaders"
"122",1571,5645045,"complete","block a","musicreaders","trial",7,2538,1,0,"valid","valid","musicreaders"
"123",1583,5645045,"complete","block a","musicreaders","trial",8,4551.8,1,0,"valid","valid","musicreaders"
"124",1595,5645045,"complete","block a","musicreaders","trial",9,2863.2,1,0,"valid","valid","musicreaders"
"125",1607,5645045,"complete","block a","musicreaders","trial",10,2330.8,1,1,"neutral","neutral","musicreaders"
"126",1619,5645045,"complete","block a","musicreaders","trial",11,2056.8,1,0,"valid","valid","musicreaders"
"127",1631,5645045,"complete","block a","musicreaders","trial",12,5752.3,1,1,"neutral","neutral","musicreaders"
"128",1643,5645045,"complete","block a","musicreaders","trial",13,3129.8,1,0,"invalid","invalid","musicreaders"
"129",1655,5645045,"complete","block a","musicreaders","trial",14,2411.5,1,1,"valid","valid","musicreaders"
"130",1667,5645045,"complete","block a","musicreaders","trial",15,1729.2,1,1,"invalid","invalid","musicreaders"
"131",1679,5645045,"complete","block a","musicreaders","trial",16,1729.4,1,1,"valid","valid","musicreaders"
"132",1691,5645045,"complete","block a","musicreaders","trial",17,2309.3,1,1,"valid","valid","musicreaders"
"133",1703,5645045,"complete","block a","musicreaders","trial",18,5418.2,1,0,"valid","valid","musicreaders"
"134",1715,5645045,"complete","block a","musicreaders","trial",19,1785.6,1,1,"valid","valid","musicreaders"
"135",1727,5645045,"complete","block a","musicreaders","trial",20,2957.2,1,1,"valid","valid","musicreaders"
"136",1739,5645045,"complete","block a","musicreaders","trial",21,2405.1,1,1,"neutral","neutral","musicreaders"
"137",1751,5645045,"complete","block a","musicreaders","trial",22,3774.2,1,0,"neutral","neutral","musicreaders"
"138",1763,5645045,"complete","block a","musicreaders","trial",23,2809.8,1,1,"valid","valid","musicreaders"
"139",1793,5648092,"complete","block a","musicreaders","trial",1,6900.4,1,1,"valid","valid","musicreaders"
"140",1805,5648092,"complete","block a","musicreaders","trial",2,3365.9,1,0,"neutral","neutral","musicreaders"
"141",1817,5648092,"complete","block a","musicreaders","trial",3,2054.1,1,1,"valid","valid","musicreaders"
"142",1829,5648092,"complete","block a","musicreaders","trial",4,1293.9,1,1,"invalid","invalid","musicreaders"
"143",1841,5648092,"complete","block a","musicreaders","trial",5,4663.8,1,1,"valid","valid","musicreaders"
"144",1853,5648092,"complete","block a","musicreaders","trial",6,2067.8,1,1,"neutral","neutral","musicreaders"
"145",1865,5648092,"complete","block a","musicreaders","trial",7,1231.2,1,1,"valid","valid","musicreaders"
"146",1877,5648092,"complete","block a","musicreaders","trial",8,4580.5,1,0,"invalid","invalid","musicreaders"
"147",1889,5648092,"complete","block a","musicreaders","trial",9,1516.5,1,1,"valid","valid","musicreaders"
"148",1901,5648092,"complete","block a","musicreaders","trial",10,3429,1,1,"valid","valid","musicreaders"
"149",1913,5648092,"complete","block a","musicreaders","trial",11,4674.1,1,0,"valid","valid","musicreaders"
"150",1925,5648092,"complete","block a","musicreaders","trial",12,6760,1,1,"valid","valid","musicreaders"
"151",1937,5648092,"complete","block a","musicreaders","trial",13,2791.2,1,0,"invalid","invalid","musicreaders"
"152",1949,5648092,"complete","block a","musicreaders","trial",14,1668.1,1,1,"valid","valid","musicreaders"
"153",1961,5648092,"complete","block a","musicreaders","trial",15,1013.6,1,1,"neutral","neutral","musicreaders"
"154",1973,5648092,"complete","block a","musicreaders","trial",16,3331.9,1,1,"valid","valid","musicreaders"
"155",1985,5648092,"complete","block a","musicreaders","trial",17,1695.8,1,1,"valid","valid","musicreaders"
"156",1997,5648092,"complete","block a","musicreaders","trial",18,2204.5,1,1,"valid","valid","musicreaders"
"157",2009,5648092,"complete","block a","musicreaders","trial",19,3862,1,1,"valid","valid","musicreaders"
"158",2021,5648092,"complete","block a","musicreaders","trial",20,4927.8,1,1,"invalid","invalid","musicreaders"
"159",2033,5648092,"complete","block a","musicreaders","trial",21,1177.8,1,1,"valid","valid","musicreaders"
"160",2045,5648092,"complete","block a","musicreaders","trial",22,4098.7,1,1,"valid","valid","musicreaders"
"161",2057,5648092,"complete","block a","musicreaders","trial",23,1390.9,1,1,"neutral","neutral","musicreaders"
"162",2087,5693788,"complete","block a","musicreaders","trial",1,2120.6,1,0,"valid","valid","musicreaders"
"163",2099,5693788,"complete","block a","musicreaders","trial",2,1277.5,1,0,"valid","valid","musicreaders"
"164",2111,5693788,"complete","block a","musicreaders","trial",3,1016.3,1,1,"invalid","invalid","musicreaders"
"165",2123,5693788,"complete","block a","musicreaders","trial",4,218.4,1,1,"invalid","invalid","musicreaders"
"166",2135,5693788,"complete","block a","musicreaders","trial",5,724.9,1,1,"invalid","invalid","musicreaders"
"167",2147,5693788,"complete","block a","musicreaders","trial",6,1399.5,1,1,"valid","valid","musicreaders"
"168",2159,5693788,"complete","block a","musicreaders","trial",7,1829.3,1,1,"valid","valid","musicreaders"
"169",2171,5693788,"complete","block a","musicreaders","trial",8,1593.5,1,0,"neutral","neutral","musicreaders"
"170",2183,5693788,"complete","block a","musicreaders","trial",9,6001.4,1,1,"invalid","invalid","musicreaders"
"171",2195,5693788,"complete","block a","musicreaders","trial",10,8774.2,1,0,"valid","valid","musicreaders"
"172",2207,5693788,"complete","block a","musicreaders","trial",11,1896,1,1,"valid","valid","musicreaders"
"173",2219,5693788,"complete","block a","musicreaders","trial",12,999.7,1,1,"valid","valid","musicreaders"
"174",2231,5693788,"complete","block a","musicreaders","trial",13,1395.3,1,0,"valid","valid","musicreaders"
"175",2243,5693788,"complete","block a","musicreaders","trial",14,654.9,1,0,"valid","valid","musicreaders"
"176",2255,5693788,"complete","block a","musicreaders","trial",15,808.4,1,0,"neutral","neutral","musicreaders"
"177",2267,5693788,"complete","block a","musicreaders","trial",16,7473,1,0,"valid","valid","musicreaders"
"178",2279,5693788,"complete","block a","musicreaders","trial",17,1028.5,1,1,"neutral","neutral","musicreaders"
"179",2291,5693788,"complete","block a","musicreaders","trial",18,1439.9,1,1,"neutral","neutral","musicreaders"
"180",2303,5693788,"complete","block a","musicreaders","trial",19,1164.4,1,1,"valid","valid","musicreaders"
"181",2315,5693788,"complete","block a","musicreaders","trial",20,1363.5,1,1,"valid","valid","musicreaders"
"182",2327,5693788,"complete","block a","musicreaders","trial",21,1113.5,1,0,"valid","valid","musicreaders"
"183",2339,5693788,"complete","block a","musicreaders","trial",22,1112.3,1,0,"valid","valid","musicreaders"
"184",2351,5693788,"complete","block a","musicreaders","trial",23,1204.6,1,0,"valid","valid","musicreaders"
"185",2381,5697775,"complete","block a","musicreaders","trial",1,2610,1,1,"invalid","invalid","musicreaders"
"186",2393,5697775,"complete","block a","musicreaders","trial",2,4570,1,1,"invalid","invalid","musicreaders"
"187",2405,5697775,"complete","block a","musicreaders","trial",3,2337,1,1,"invalid","invalid","musicreaders"
"188",2417,5697775,"complete","block a","musicreaders","trial",4,2386,1,1,"invalid","invalid","musicreaders"
"189",2429,5697775,"complete","block a","musicreaders","trial",5,2259,1,0,"valid","valid","musicreaders"
"190",2441,5697775,"complete","block a","musicreaders","trial",6,2785,1,0,"neutral","neutral","musicreaders"
"191",2453,5697775,"complete","block a","musicreaders","trial",7,2824,1,0,"neutral","neutral","musicreaders"
"192",2465,5697775,"complete","block a","musicreaders","trial",8,2341,1,0,"valid","valid","musicreaders"
"193",2477,5697775,"complete","block a","musicreaders","trial",9,1748,1,0,"valid","valid","musicreaders"
"194",2489,5697775,"complete","block a","musicreaders","trial",10,2538,1,0,"valid","valid","musicreaders"
"195",2501,5697775,"complete","block a","musicreaders","trial",11,2555,1,1,"valid","valid","musicreaders"
"196",2513,5697775,"complete","block a","musicreaders","trial",12,2288,1,1,"valid","valid","musicreaders"
"197",2525,5697775,"complete","block a","musicreaders","trial",13,1344,1,1,"valid","valid","musicreaders"
"198",2537,5697775,"complete","block a","musicreaders","trial",14,3442,1,1,"valid","valid","musicreaders"
"199",2549,5697775,"complete","block a","musicreaders","trial",15,1751,1,0,"valid","valid","musicreaders"
"200",2561,5697775,"complete","block a","musicreaders","trial",16,2007,1,1,"valid","valid","musicreaders"
"201",2573,5697775,"complete","block a","musicreaders","trial",17,3305,1,0,"valid","valid","musicreaders"
"202",2585,5697775,"complete","block a","musicreaders","trial",18,2797,1,0,"valid","valid","musicreaders"
"203",2597,5697775,"complete","block a","musicreaders","trial",19,1564,1,1,"neutral","neutral","musicreaders"
"204",2609,5697775,"complete","block a","musicreaders","trial",20,2069,1,0,"neutral","neutral","musicreaders"
"205",2621,5697775,"complete","block a","musicreaders","trial",21,1732,1,0,"valid","valid","musicreaders"
"206",2633,5697775,"complete","block a","musicreaders","trial",22,2356,1,1,"valid","valid","musicreaders"
"207",2645,5697775,"complete","block a","musicreaders","trial",23,4900,1,1,"valid","valid","musicreaders"
"208",2675,5732681,"complete","block a","musicreaders","trial",1,1812.3,1,0,"valid","valid","musicreaders"
"209",2687,5732681,"complete","block a","musicreaders","trial",2,2255.4,1,1,"valid","valid","musicreaders"
"210",2699,5732681,"complete","block a","musicreaders","trial",3,3035.8,1,0,"valid","valid","musicreaders"
"211",2711,5732681,"complete","block a","musicreaders","trial",4,1522.6,1,1,"valid","valid","musicreaders"
"212",2723,5732681,"complete","block a","musicreaders","trial",5,1590.2,1,1,"valid","valid","musicreaders"
"213",2735,5732681,"complete","block a","musicreaders","trial",6,5242.3,1,1,"neutral","neutral","musicreaders"
"214",2747,5732681,"complete","block a","musicreaders","trial",7,3328.1,1,1,"valid","valid","musicreaders"
"215",2759,5732681,"complete","block a","musicreaders","trial",8,1162.4,1,1,"invalid","invalid","musicreaders"
"216",2771,5732681,"complete","block a","musicreaders","trial",9,1240.2,1,1,"valid","valid","musicreaders"
"217",2783,5732681,"complete","block a","musicreaders","trial",10,1696.8,1,1,"valid","valid","musicreaders"
"218",2795,5732681,"complete","block a","musicreaders","trial",11,2329.8,1,1,"valid","valid","musicreaders"
"219",2807,5732681,"complete","block a","musicreaders","trial",12,1065.9,1,1,"neutral","neutral","musicreaders"
"220",2819,5732681,"complete","block a","musicreaders","trial",13,3453.5,1,1,"invalid","invalid","musicreaders"
"221",2831,5732681,"complete","block a","musicreaders","trial",14,1716.6,1,1,"valid","valid","musicreaders"
"222",2843,5732681,"complete","block a","musicreaders","trial",15,1339.2,1,1,"invalid","invalid","musicreaders"
"223",2855,5732681,"complete","block a","musicreaders","trial",16,1559.4,1,1,"valid","valid","musicreaders"
"224",2867,5732681,"complete","block a","musicreaders","trial",17,1574.5,1,1,"neutral","neutral","musicreaders"
"225",2879,5732681,"complete","block a","musicreaders","trial",18,1672.6,1,1,"neutral","neutral","musicreaders"
"226",2891,5732681,"complete","block a","musicreaders","trial",19,1426.3,1,1,"valid","valid","musicreaders"
"227",2903,5732681,"complete","block a","musicreaders","trial",20,2930.8,1,1,"valid","valid","musicreaders"
"228",2915,5732681,"complete","block a","musicreaders","trial",21,1472.9,1,1,"invalid","invalid","musicreaders"
"229",2927,5732681,"complete","block a","musicreaders","trial",22,2649.5,1,1,"valid","valid","musicreaders"
"230",2939,5732681,"complete","block a","musicreaders","trial",23,1299.4,1,1,"valid","valid","musicreaders"
"231",2969,5855254,"complete","block a","musicreaders","trial",1,1611,1,1,"valid","valid","musicreaders"
"232",2981,5855254,"complete","block a","musicreaders","trial",2,1434,1,1,"invalid","invalid","musicreaders"
"233",2993,5855254,"complete","block a","musicreaders","trial",3,1223,1,1,"valid","valid","musicreaders"
"234",3005,5855254,"complete","block a","musicreaders","trial",4,1295,1,1,"valid","valid","musicreaders"
"235",3017,5855254,"complete","block a","musicreaders","trial",5,1209,1,1,"valid","valid","musicreaders"
"236",3029,5855254,"complete","block a","musicreaders","trial",6,2383,1,0,"valid","valid","musicreaders"
"237",3041,5855254,"complete","block a","musicreaders","trial",7,5541,1,1,"valid","valid","musicreaders"
"238",3053,5855254,"complete","block a","musicreaders","trial",8,4816,1,1,"valid","valid","musicreaders"
"239",3065,5855254,"complete","block a","musicreaders","trial",9,1073,1,1,"valid","valid","musicreaders"
"240",3077,5855254,"complete","block a","musicreaders","trial",10,2923,1,0,"invalid","invalid","musicreaders"
"241",3089,5855254,"complete","block a","musicreaders","trial",11,1663,1,1,"neutral","neutral","musicreaders"
"242",3101,5855254,"complete","block a","musicreaders","trial",12,1999,1,1,"valid","valid","musicreaders"
"243",3113,5855254,"complete","block a","musicreaders","trial",13,1670,1,0,"valid","valid","musicreaders"
"244",3125,5855254,"complete","block a","musicreaders","trial",14,1412,1,1,"neutral","neutral","musicreaders"
"245",3137,5855254,"complete","block a","musicreaders","trial",15,1939,1,1,"valid","valid","musicreaders"
"246",3149,5855254,"complete","block a","musicreaders","trial",16,4024,1,1,"valid","valid","musicreaders"
"247",3161,5855254,"complete","block a","musicreaders","trial",17,1639,1,1,"invalid","invalid","musicreaders"
"248",3173,5855254,"complete","block a","musicreaders","trial",18,2331,1,1,"invalid","invalid","musicreaders"
"249",3185,5855254,"complete","block a","musicreaders","trial",19,2198,1,1,"neutral","neutral","musicreaders"
"250",3197,5855254,"complete","block a","musicreaders","trial",20,3071,1,1,"neutral","neutral","musicreaders"
"251",3209,5855254,"complete","block a","musicreaders","trial",21,1346,1,1,"valid","valid","musicreaders"
"252",3221,5855254,"complete","block a","musicreaders","trial",22,2401,1,1,"valid","valid","musicreaders"
"253",3233,5855254,"complete","block a","musicreaders","trial",23,2321,1,1,"valid","valid","musicreaders"
"254",3263,5911449,"complete","block a","musicreaders","trial",1,1449.3,1,0,"neutral","neutral","musicreaders"
"255",3275,5911449,"complete","block a","musicreaders","trial",2,3822.3,1,1,"valid","valid","musicreaders"
"256",3287,5911449,"complete","block a","musicreaders","trial",3,7971.7,1,0,"valid","valid","musicreaders"
"257",3299,5911449,"complete","block a","musicreaders","trial",4,4151.6,1,1,"invalid","invalid","musicreaders"
"258",3311,5911449,"complete","block a","musicreaders","trial",5,1955,1,0,"valid","valid","musicreaders"
"259",3323,5911449,"complete","block a","musicreaders","trial",6,876.2,1,0,"valid","valid","musicreaders"
"260",3335,5911449,"complete","block a","musicreaders","trial",7,3573.9,1,0,"neutral","neutral","musicreaders"
"261",3347,5911449,"complete","block a","musicreaders","trial",8,2835.5,1,0,"invalid","invalid","musicreaders"
"262",3359,5911449,"complete","block a","musicreaders","trial",9,3345.2,1,1,"valid","valid","musicreaders"
"263",3371,5911449,"complete","block a","musicreaders","trial",10,8867.5,1,0,"valid","valid","musicreaders"
"264",3383,5911449,"complete","block a","musicreaders","trial",11,2827,1,0,"valid","valid","musicreaders"
"265",3395,5911449,"complete","block a","musicreaders","trial",12,10944.3,1,0,"valid","valid","musicreaders"
"266",3407,5911449,"complete","block a","musicreaders","trial",13,1689.4,1,0,"valid","valid","musicreaders"
"267",3419,5911449,"complete","block a","musicreaders","trial",14,1317.8,1,0,"neutral","neutral","musicreaders"
"268",3431,5911449,"complete","block a","musicreaders","trial",15,21421,1,1,"invalid","invalid","musicreaders"
"269",3443,5911449,"complete","block a","musicreaders","trial",16,5678.7,1,0,"neutral","neutral","musicreaders"
"270",3455,5911449,"complete","block a","musicreaders","trial",17,6135.1,1,1,"invalid","invalid","musicreaders"
"271",3467,5911449,"complete","block a","musicreaders","trial",18,4441.9,1,1,"valid","valid","musicreaders"
"272",3479,5911449,"complete","block a","musicreaders","trial",19,1510.4,1,1,"valid","valid","musicreaders"
"273",3491,5911449,"complete","block a","musicreaders","trial",20,1474.8,1,1,"valid","valid","musicreaders"
"274",3503,5911449,"complete","block a","musicreaders","trial",21,1924.2,1,0,"valid","valid","musicreaders"
"275",3515,5911449,"complete","block a","musicreaders","trial",22,1486.2,1,0,"valid","valid","musicreaders"
"276",3527,5911449,"complete","block a","musicreaders","trial",23,1765.7,1,0,"valid","valid","musicreaders"
"277",3557,6094448,"complete","block a","musicreaders","trial",1,3688,1,1,"valid","valid","musicreaders"
"278",3569,6094448,"complete","block a","musicreaders","trial",2,3515,1,0,"valid","valid","musicreaders"
"279",3581,6094448,"complete","block a","musicreaders","trial",3,2188,1,0,"valid","valid","musicreaders"
"280",3593,6094448,"complete","block a","musicreaders","trial",4,1337,1,1,"valid","valid","musicreaders"
"281",3605,6094448,"complete","block a","musicreaders","trial",5,1373,1,1,"valid","valid","musicreaders"
"282",3617,6094448,"complete","block a","musicreaders","trial",6,2287,1,0,"valid","valid","musicreaders"
"283",3629,6094448,"complete","block a","musicreaders","trial",7,1567,1,1,"valid","valid","musicreaders"
"284",3641,6094448,"complete","block a","musicreaders","trial",8,2114,1,1,"neutral","neutral","musicreaders"
"285",3653,6094448,"complete","block a","musicreaders","trial",9,2451,1,0,"neutral","neutral","musicreaders"
"286",3665,6094448,"complete","block a","musicreaders","trial",10,1536,1,1,"valid","valid","musicreaders"
"287",3677,6094448,"complete","block a","musicreaders","trial",11,1180,1,0,"valid","valid","musicreaders"
"288",3689,6094448,"complete","block a","musicreaders","trial",12,1108,1,1,"valid","valid","musicreaders"
"289",3701,6094448,"complete","block a","musicreaders","trial",13,2083,1,0,"valid","valid","musicreaders"
"290",3713,6094448,"complete","block a","musicreaders","trial",14,5378,1,0,"invalid","invalid","musicreaders"
"291",3725,6094448,"complete","block a","musicreaders","trial",15,1453,1,1,"neutral","neutral","musicreaders"
"292",3737,6094448,"complete","block a","musicreaders","trial",16,1308,1,1,"neutral","neutral","musicreaders"
"293",3749,6094448,"complete","block a","musicreaders","trial",17,1889,1,1,"valid","valid","musicreaders"
"294",3761,6094448,"complete","block a","musicreaders","trial",18,1583,1,1,"invalid","invalid","musicreaders"
"295",3773,6094448,"complete","block a","musicreaders","trial",19,1346,1,1,"valid","valid","musicreaders"
"296",3785,6094448,"complete","block a","musicreaders","trial",20,2453,1,1,"valid","valid","musicreaders"
"297",3797,6094448,"complete","block a","musicreaders","trial",21,3111,1,1,"valid","valid","musicreaders"
"298",3809,6094448,"complete","block a","musicreaders","trial",22,1123,1,1,"invalid","invalid","musicreaders"
"299",3821,6094448,"complete","block a","musicreaders","trial",23,4136,1,1,"invalid","invalid","musicreaders"
"300",3851,6204416,"complete","block a","musicreaders","trial",1,2132,1,1,"valid","valid","musicreaders"
"301",3863,6204416,"complete","block a","musicreaders","trial",2,2218,1,0,"neutral","neutral","musicreaders"
"302",3875,6204416,"complete","block a","musicreaders","trial",3,1982,1,0,"valid","valid","musicreaders"
"303",3887,6204416,"complete","block a","musicreaders","trial",4,1766,1,1,"valid","valid","musicreaders"
"304",3899,6204416,"complete","block a","musicreaders","trial",5,1283,1,1,"valid","valid","musicreaders"
"305",3911,6204416,"complete","block a","musicreaders","trial",6,2434,1,0,"invalid","invalid","musicreaders"
"306",3923,6204416,"complete","block a","musicreaders","trial",7,1200,1,1,"valid","valid","musicreaders"
"307",3935,6204416,"complete","block a","musicreaders","trial",8,2900,1,0,"neutral","neutral","musicreaders"
"308",3947,6204416,"complete","block a","musicreaders","trial",9,1716,1,1,"valid","valid","musicreaders"
"309",3959,6204416,"complete","block a","musicreaders","trial",10,1303,1,0,"neutral","neutral","musicreaders"
"310",3971,6204416,"complete","block a","musicreaders","trial",11,2100,1,0,"invalid","invalid","musicreaders"
"311",3983,6204416,"complete","block a","musicreaders","trial",12,1248,1,1,"invalid","invalid","musicreaders"
"312",3995,6204416,"complete","block a","musicreaders","trial",13,1766,1,0,"valid","valid","musicreaders"
"313",4007,6204416,"complete","block a","musicreaders","trial",14,1550,1,1,"neutral","neutral","musicreaders"
"314",4019,6204416,"complete","block a","musicreaders","trial",15,2266,1,0,"valid","valid","musicreaders"
"315",4031,6204416,"complete","block a","musicreaders","trial",16,1167,1,1,"valid","valid","musicreaders"
"316",4043,6204416,"complete","block a","musicreaders","trial",17,1884,1,1,"valid","valid","musicreaders"
"317",4055,6204416,"complete","block a","musicreaders","trial",18,1670,1,0,"valid","valid","musicreaders"
"318",4067,6204416,"complete","block a","musicreaders","trial",19,1984,1,1,"valid","valid","musicreaders"
"319",4079,6204416,"complete","block a","musicreaders","trial",20,1683,1,1,"valid","valid","musicreaders"
"320",4091,6204416,"complete","block a","musicreaders","trial",21,1566,1,1,"invalid","invalid","musicreaders"
"321",4103,6204416,"complete","block a","musicreaders","trial",22,2983,1,1,"valid","valid","musicreaders"
"322",4115,6204416,"complete","block a","musicreaders","trial",23,1435,1,1,"valid","valid","musicreaders"
"323",4145,5613339,"complete","EXPERIMENT 1a","musicreaders","trial",1,4986.1,1,1,"valid","valid","musicreaders"
"324",4157,5613339,"complete","EXPERIMENT 1a","musicreaders","trial",2,5488.8,1,1,"valid","valid","musicreaders"
"325",4169,5613339,"complete","EXPERIMENT 1a","musicreaders","trial",3,4081.2,1,1,"invalid","invalid","musicreaders"
"326",4181,5613339,"complete","EXPERIMENT 1a","musicreaders","trial",4,1590.4,1,1,"invalid","invalid","musicreaders"
"327",4193,5613339,"complete","EXPERIMENT 1a","musicreaders","trial",5,1730.7,1,1,"invalid","invalid","musicreaders"
"328",4205,5613339,"complete","EXPERIMENT 1a","musicreaders","trial",6,3148.9,1,1,"valid","valid","musicreaders"
"329",4217,5613339,"complete","EXPERIMENT 1a","musicreaders","trial",7,2623.7,1,1,"valid","valid","musicreaders"
"330",4229,5613339,"complete","EXPERIMENT 1a","musicreaders","trial",8,2586.3,1,1,"valid","valid","musicreaders"
"331",4241,5613339,"complete","EXPERIMENT 1a","musicreaders","trial",9,1897.1,1,1,"valid","valid","musicreaders"
"332",4253,5613339,"complete","EXPERIMENT 1a","musicreaders","trial",10,1729.1,1,1,"valid","valid","musicreaders"
"333",4265,5613339,"complete","EXPERIMENT 1a","musicreaders","trial",11,2495.2,1,1,"valid","valid","musicreaders"
"334",4277,5613339,"complete","EXPERIMENT 1a","musicreaders","trial",12,8577.6,1,1,"valid","valid","musicreaders"
"335",4289,5613339,"complete","EXPERIMENT 1a","musicreaders","trial",13,2673.9,1,1,"valid","valid","musicreaders"
"336",4301,5613339,"complete","EXPERIMENT 1a","musicreaders","trial",14,2315.8,1,1,"invalid","invalid","musicreaders"
"337",4313,5613339,"complete","EXPERIMENT 1a","musicreaders","trial",15,2132.1,1,1,"valid","valid","musicreaders"
"338",4325,5613339,"complete","EXPERIMENT 1a","musicreaders","trial",16,2510,1,1,"valid","valid","musicreaders"
"339",4337,5613339,"complete","EXPERIMENT 1a","musicreaders","trial",17,2625.6,1,1,"neutral","neutral","musicreaders"
"340",4349,5613339,"complete","EXPERIMENT 1a","musicreaders","trial",18,4464.8,1,1,"neutral","neutral","musicreaders"
"341",4361,5613339,"complete","EXPERIMENT 1a","musicreaders","trial",19,2488,1,1,"valid","valid","musicreaders"
"342",4373,5613339,"complete","EXPERIMENT 1a","musicreaders","trial",20,1599,1,1,"neutral","neutral","musicreaders"
"343",4385,5613339,"complete","EXPERIMENT 1a","musicreaders","trial",21,1926.2,1,1,"valid","valid","musicreaders"
"344",4397,5613339,"complete","EXPERIMENT 1a","musicreaders","trial",22,1449.8,1,1,"neutral","neutral","musicreaders"
"345",4409,5613339,"complete","EXPERIMENT 1a","musicreaders","trial",23,1409.8,1,1,"valid","valid","musicreaders"
"346",4439,5627762,"complete","EXPERIMENT 1a","musicreaders","trial",1,8838.9,1,1,"valid","valid","musicreaders"
"347",4451,5627762,"complete","EXPERIMENT 1a","musicreaders","trial",2,1441.6,1,0,"valid","valid","musicreaders"
"348",4463,5627762,"complete","EXPERIMENT 1a","musicreaders","trial",3,2406.8,1,1,"invalid","invalid","musicreaders"
"349",4475,5627762,"complete","EXPERIMENT 1a","musicreaders","trial",4,2659.3,1,1,"valid","valid","musicreaders"
"350",4487,5627762,"complete","EXPERIMENT 1a","musicreaders","trial",5,1340.5,1,1,"valid","valid","musicreaders"
"351",4499,5627762,"complete","EXPERIMENT 1a","musicreaders","trial",6,7695.6,1,0,"valid","valid","musicreaders"
"352",4511,5627762,"complete","EXPERIMENT 1a","musicreaders","trial",7,3142.2,1,0,"valid","valid","musicreaders"
"353",4523,5627762,"complete","EXPERIMENT 1a","musicreaders","trial",8,1261.7,1,0,"neutral","neutral","musicreaders"
"354",4535,5627762,"complete","EXPERIMENT 1a","musicreaders","trial",9,3557.6,1,0,"neutral","neutral","musicreaders"
"355",4547,5627762,"complete","EXPERIMENT 1a","musicreaders","trial",10,4709.7,1,0,"valid","valid","musicreaders"
"356",4559,5627762,"complete","EXPERIMENT 1a","musicreaders","trial",11,2139.5,1,1,"valid","valid","musicreaders"
"357",4571,5627762,"complete","EXPERIMENT 1a","musicreaders","trial",12,2525.8,1,1,"invalid","invalid","musicreaders"
"358",4583,5627762,"complete","EXPERIMENT 1a","musicreaders","trial",13,1142.9,1,1,"neutral","neutral","musicreaders"
"359",4595,5627762,"complete","EXPERIMENT 1a","musicreaders","trial",14,3275.9,1,1,"valid","valid","musicreaders"
"360",4607,5627762,"complete","EXPERIMENT 1a","musicreaders","trial",15,3775.1,1,1,"valid","valid","musicreaders"
"361",4619,5627762,"complete","EXPERIMENT 1a","musicreaders","trial",16,3790.5,1,0,"valid","valid","musicreaders"
"362",4631,5627762,"complete","EXPERIMENT 1a","musicreaders","trial",17,2725.4,1,1,"valid","valid","musicreaders"
"363",4643,5627762,"complete","EXPERIMENT 1a","musicreaders","trial",18,3075.6,1,1,"valid","valid","musicreaders"
"364",4655,5627762,"complete","EXPERIMENT 1a","musicreaders","trial",19,4224.3,1,1,"neutral","neutral","musicreaders"
"365",4667,5627762,"complete","EXPERIMENT 1a","musicreaders","trial",20,1691.4,1,1,"invalid","invalid","musicreaders"
"366",4679,5627762,"complete","EXPERIMENT 1a","musicreaders","trial",21,3426.1,1,1,"invalid","invalid","musicreaders"
"367",4691,5627762,"complete","EXPERIMENT 1a","musicreaders","trial",22,4559.9,1,0,"valid","valid","musicreaders"
"368",4703,5627762,"complete","EXPERIMENT 1a","musicreaders","trial",23,3276.4,1,1,"valid","valid","musicreaders"
"369",4734,6019267,"complete","EXPERIMENT 1a","musicreaders","trial",1,2530.7,1,1,"valid","valid","musicreaders"
"370",4746,6019267,"complete","EXPERIMENT 1a","musicreaders","trial",2,2178.2,1,1,"valid","valid","musicreaders"
"371",4758,6019267,"complete","EXPERIMENT 1a","musicreaders","trial",3,1351.8,1,1,"valid","valid","musicreaders"
"372",4770,6019267,"complete","EXPERIMENT 1a","musicreaders","trial",4,2261.2,1,1,"neutral","neutral","musicreaders"
"373",4782,6019267,"complete","EXPERIMENT 1a","musicreaders","trial",5,1358.4,1,1,"valid","valid","musicreaders"
"374",4794,6019267,"complete","EXPERIMENT 1a","musicreaders","trial",6,3078.1,1,1,"invalid","invalid","musicreaders"
"375",4806,6019267,"complete","EXPERIMENT 1a","musicreaders","trial",7,2108.7,1,1,"invalid","invalid","musicreaders"
"376",4818,6019267,"complete","EXPERIMENT 1a","musicreaders","trial",8,2073.3,1,1,"valid","valid","musicreaders"
"377",4830,6019267,"complete","EXPERIMENT 1a","musicreaders","trial",9,1526,1,1,"valid","valid","musicreaders"
"378",4842,6019267,"complete","EXPERIMENT 1a","musicreaders","trial",10,1093.3,1,1,"valid","valid","musicreaders"
"379",4854,6019267,"complete","EXPERIMENT 1a","musicreaders","trial",11,1350.5,1,1,"valid","valid","musicreaders"
"380",4866,6019267,"complete","EXPERIMENT 1a","musicreaders","trial",12,1587.4,1,1,"invalid","invalid","musicreaders"
"381",4878,6019267,"complete","EXPERIMENT 1a","musicreaders","trial",13,1943.5,1,1,"neutral","neutral","musicreaders"
"382",4890,6019267,"complete","EXPERIMENT 1a","musicreaders","trial",14,1135.3,1,1,"valid","valid","musicreaders"
"383",4902,6019267,"complete","EXPERIMENT 1a","musicreaders","trial",15,1518.6,1,1,"valid","valid","musicreaders"
"384",4914,6019267,"complete","EXPERIMENT 1a","musicreaders","trial",16,1515.3,1,1,"valid","valid","musicreaders"
"385",4926,6019267,"complete","EXPERIMENT 1a","musicreaders","trial",17,1685.1,1,1,"neutral","neutral","musicreaders"
"386",4938,6019267,"complete","EXPERIMENT 1a","musicreaders","trial",18,1770.2,1,1,"invalid","invalid","musicreaders"
"387",4950,6019267,"complete","EXPERIMENT 1a","musicreaders","trial",19,1129.4,1,1,"valid","valid","musicreaders"
"388",4962,6019267,"complete","EXPERIMENT 1a","musicreaders","trial",20,2050,1,1,"neutral","neutral","musicreaders"
"389",4974,6019267,"complete","EXPERIMENT 1a","musicreaders","trial",21,1658.1,1,1,"valid","valid","musicreaders"
"390",4986,6019267,"complete","EXPERIMENT 1a","musicreaders","trial",22,1245.2,1,1,"valid","valid","musicreaders"
"391",4998,6019267,"complete","EXPERIMENT 1a","musicreaders","trial",23,1892.3,1,1,"valid","valid","musicreaders"
"392",5028,6089404,"complete","EXPERIMENT 1a","musicreaders","trial",1,2755.4,1,1,"neutral","neutral","musicreaders"
"393",5040,6089404,"complete","EXPERIMENT 1a","musicreaders","trial",2,1772.1,1,1,"invalid","invalid","musicreaders"
"394",5052,6089404,"complete","EXPERIMENT 1a","musicreaders","trial",3,4192.1,1,0,"neutral","neutral","musicreaders"
"395",5064,6089404,"complete","EXPERIMENT 1a","musicreaders","trial",4,1815.5,1,1,"valid","valid","musicreaders"
"396",5076,6089404,"complete","EXPERIMENT 1a","musicreaders","trial",5,2707.2,1,1,"valid","valid","musicreaders"
"397",5088,6089404,"complete","EXPERIMENT 1a","musicreaders","trial",6,3477.2,1,0,"invalid","invalid","musicreaders"
"398",5100,6089404,"complete","EXPERIMENT 1a","musicreaders","trial",7,2545.2,1,1,"valid","valid","musicreaders"
"399",5112,6089404,"complete","EXPERIMENT 1a","musicreaders","trial",8,1683.4,1,1,"valid","valid","musicreaders"
"400",5124,6089404,"complete","EXPERIMENT 1a","musicreaders","trial",9,3429.9,1,1,"valid","valid","musicreaders"
"401",5136,6089404,"complete","EXPERIMENT 1a","musicreaders","trial",10,2973.1,1,0,"valid","valid","musicreaders"
"402",5148,6089404,"complete","EXPERIMENT 1a","musicreaders","trial",11,3441.6,1,1,"valid","valid","musicreaders"
"403",5160,6089404,"complete","EXPERIMENT 1a","musicreaders","trial",12,1377.8,1,1,"valid","valid","musicreaders"
"404",5172,6089404,"complete","EXPERIMENT 1a","musicreaders","trial",13,1062.2,1,0,"valid","valid","musicreaders"
"405",5184,6089404,"complete","EXPERIMENT 1a","musicreaders","trial",14,2606.9,1,1,"valid","valid","musicreaders"
"406",5196,6089404,"complete","EXPERIMENT 1a","musicreaders","trial",15,1582.1,1,1,"valid","valid","musicreaders"
"407",5208,6089404,"complete","EXPERIMENT 1a","musicreaders","trial",16,4370.6,1,1,"invalid","invalid","musicreaders"
"408",5220,6089404,"complete","EXPERIMENT 1a","musicreaders","trial",17,2136.8,1,1,"invalid","invalid","musicreaders"
"409",5232,6089404,"complete","EXPERIMENT 1a","musicreaders","trial",18,2922.8,1,1,"valid","valid","musicreaders"
"410",5244,6089404,"complete","EXPERIMENT 1a","musicreaders","trial",19,2238.3,1,1,"valid","valid","musicreaders"
"411",5256,6089404,"complete","EXPERIMENT 1a","musicreaders","trial",20,2836.5,1,1,"neutral","neutral","musicreaders"
"412",5268,6089404,"complete","EXPERIMENT 1a","musicreaders","trial",21,3996.1,1,1,"valid","valid","musicreaders"
"413",5280,6089404,"complete","EXPERIMENT 1a","musicreaders","trial",22,1974.6,1,1,"valid","valid","musicreaders"
"414",5292,6089404,"complete","EXPERIMENT 1a","musicreaders","trial",23,2929.3,1,1,"neutral","neutral","musicreaders"
"415",5322,6089360,"complete","EXPERIMENT 1a","musicreaders","trial",1,3627.1,1,1,"valid","valid","musicreaders"
"416",5334,6089360,"complete","EXPERIMENT 1a","musicreaders","trial",2,2534.4,1,1,"invalid","invalid","musicreaders"
"417",5346,6089360,"complete","EXPERIMENT 1a","musicreaders","trial",3,1152.3,1,1,"valid","valid","musicreaders"
"418",5358,6089360,"complete","EXPERIMENT 1a","musicreaders","trial",4,1574.8,1,0,"valid","valid","musicreaders"
"419",5370,6089360,"complete","EXPERIMENT 1a","musicreaders","trial",5,1985.6,1,0,"invalid","invalid","musicreaders"
"420",5382,6089360,"complete","EXPERIMENT 1a","musicreaders","trial",6,2123.1,1,1,"neutral","neutral","musicreaders"
"421",5394,6089360,"complete","EXPERIMENT 1a","musicreaders","trial",7,1662,1,1,"valid","valid","musicreaders"
"422",5406,6089360,"complete","EXPERIMENT 1a","musicreaders","trial",8,5404.1,1,0,"valid","valid","musicreaders"
"423",5418,6089360,"complete","EXPERIMENT 1a","musicreaders","trial",9,1869.7,1,1,"valid","valid","musicreaders"
"424",5430,6089360,"complete","EXPERIMENT 1a","musicreaders","trial",10,3760.4,1,1,"neutral","neutral","musicreaders"
"425",5442,6089360,"complete","EXPERIMENT 1a","musicreaders","trial",11,2682.1,1,1,"valid","valid","musicreaders"
"426",5454,6089360,"complete","EXPERIMENT 1a","musicreaders","trial",12,2886.7,1,0,"invalid","invalid","musicreaders"
"427",5466,6089360,"complete","EXPERIMENT 1a","musicreaders","trial",13,2636.9,1,0,"valid","valid","musicreaders"
"428",5478,6089360,"complete","EXPERIMENT 1a","musicreaders","trial",14,1577.1,1,0,"valid","valid","musicreaders"
"429",5490,6089360,"complete","EXPERIMENT 1a","musicreaders","trial",15,3492.4,1,1,"valid","valid","musicreaders"
"430",5502,6089360,"complete","EXPERIMENT 1a","musicreaders","trial",16,667242.5,1,0,"valid","valid","musicreaders"
"431",5514,6089360,"complete","EXPERIMENT 1a","musicreaders","trial",17,1979.7,1,0,"invalid","invalid","musicreaders"
"432",5526,6089360,"complete","EXPERIMENT 1a","musicreaders","trial",18,2332.7,1,1,"valid","valid","musicreaders"
"433",5538,6089360,"complete","EXPERIMENT 1a","musicreaders","trial",19,2579,1,1,"valid","valid","musicreaders"
"434",5550,6089360,"complete","EXPERIMENT 1a","musicreaders","trial",20,5008.3,1,0,"valid","valid","musicreaders"
"435",5562,6089360,"complete","EXPERIMENT 1a","musicreaders","trial",21,2303.4,1,1,"neutral","neutral","musicreaders"
"436",5574,6089360,"complete","EXPERIMENT 1a","musicreaders","trial",22,2758.3,1,1,"neutral","neutral","musicreaders"
"437",5586,6089360,"complete","EXPERIMENT 1a","musicreaders","trial",23,5883.1,1,0,"valid","valid","musicreaders"
"438",5616,6089383,"complete","EXPERIMENT 1a","musicreaders","trial",1,15027,1,0,"valid","valid","musicreaders"
"439",5628,6089383,"complete","EXPERIMENT 1a","musicreaders","trial",2,3796,1,1,"invalid","invalid","musicreaders"
"440",5640,6089383,"complete","EXPERIMENT 1a","musicreaders","trial",3,1696,1,1,"invalid","invalid","musicreaders"
"441",5652,6089383,"complete","EXPERIMENT 1a","musicreaders","trial",4,2414,1,0,"valid","valid","musicreaders"
"442",5664,6089383,"complete","EXPERIMENT 1a","musicreaders","trial",5,5578,1,0,"valid","valid","musicreaders"
"443",5676,6089383,"complete","EXPERIMENT 1a","musicreaders","trial",6,2646,1,0,"valid","valid","musicreaders"
"444",5688,6089383,"complete","EXPERIMENT 1a","musicreaders","trial",7,17465,1,1,"valid","valid","musicreaders"
"445",5700,6089383,"complete","EXPERIMENT 1a","musicreaders","trial",8,1649,1,1,"valid","valid","musicreaders"
"446",5712,6089383,"complete","EXPERIMENT 1a","musicreaders","trial",9,2144,1,0,"valid","valid","musicreaders"
"447",5724,6089383,"complete","EXPERIMENT 1a","musicreaders","trial",10,1644,1,1,"valid","valid","musicreaders"
"448",5736,6089383,"complete","EXPERIMENT 1a","musicreaders","trial",11,29063,1,1,"neutral","neutral","musicreaders"
"449",5748,6089383,"complete","EXPERIMENT 1a","musicreaders","trial",12,1664,1,1,"valid","valid","musicreaders"
"450",5760,6089383,"complete","EXPERIMENT 1a","musicreaders","trial",13,1648,1,1,"valid","valid","musicreaders"
"451",5772,6089383,"complete","EXPERIMENT 1a","musicreaders","trial",14,1580,1,1,"neutral","neutral","musicreaders"
"452",5784,6089383,"complete","EXPERIMENT 1a","musicreaders","trial",15,146825,1,0,"valid","valid","musicreaders"
"453",5796,6089383,"complete","EXPERIMENT 1a","musicreaders","trial",16,3779,1,1,"invalid","invalid","musicreaders"
"454",5808,6089383,"complete","EXPERIMENT 1a","musicreaders","trial",17,30816,1,1,"neutral","neutral","musicreaders"
"455",5820,6089383,"complete","EXPERIMENT 1a","musicreaders","trial",18,2282,1,0,"valid","valid","musicreaders"
"456",5832,6089383,"complete","EXPERIMENT 1a","musicreaders","trial",19,102543,1,0,"neutral","neutral","musicreaders"
"457",5844,6089383,"complete","EXPERIMENT 1a","musicreaders","trial",20,1879,1,0,"invalid","invalid","musicreaders"
"458",5856,6089383,"complete","EXPERIMENT 1a","musicreaders","trial",21,1396,1,1,"valid","valid","musicreaders"
"459",5868,6089383,"complete","EXPERIMENT 1a","musicreaders","trial",22,2065,1,1,"valid","valid","musicreaders"
"460",5880,6089383,"complete","EXPERIMENT 1a","musicreaders","trial",23,2932,1,1,"valid","valid","musicreaders"
"461",5910,6089418,"complete","EXPERIMENT 1a","musicreaders","trial",1,3170.2,1,1,"valid","valid","musicreaders"
"462",5922,6089418,"complete","EXPERIMENT 1a","musicreaders","trial",2,2022.9,1,1,"valid","valid","musicreaders"
"463",5934,6089418,"complete","EXPERIMENT 1a","musicreaders","trial",3,1661.4,1,1,"valid","valid","musicreaders"
"464",5946,6089418,"complete","EXPERIMENT 1a","musicreaders","trial",4,1523.1,1,1,"neutral","neutral","musicreaders"
"465",5958,6089418,"complete","EXPERIMENT 1a","musicreaders","trial",5,2413.4,1,1,"valid","valid","musicreaders"
"466",5970,6089418,"complete","EXPERIMENT 1a","musicreaders","trial",6,1888.3,1,1,"invalid","invalid","musicreaders"
"467",5982,6089418,"complete","EXPERIMENT 1a","musicreaders","trial",7,1520.5,1,1,"valid","valid","musicreaders"
"468",5994,6089418,"complete","EXPERIMENT 1a","musicreaders","trial",8,1838.6,1,0,"valid","valid","musicreaders"
"469",6006,6089418,"complete","EXPERIMENT 1a","musicreaders","trial",9,1303.8,1,1,"valid","valid","musicreaders"
"470",6018,6089418,"complete","EXPERIMENT 1a","musicreaders","trial",10,1749.7,1,1,"valid","valid","musicreaders"
"471",6030,6089418,"complete","EXPERIMENT 1a","musicreaders","trial",11,2114.1,1,1,"valid","valid","musicreaders"
"472",6042,6089418,"complete","EXPERIMENT 1a","musicreaders","trial",12,2631.7,1,1,"invalid","invalid","musicreaders"
"473",6054,6089418,"complete","EXPERIMENT 1a","musicreaders","trial",13,2610.9,1,1,"valid","valid","musicreaders"
"474",6066,6089418,"complete","EXPERIMENT 1a","musicreaders","trial",14,1821.9,1,1,"valid","valid","musicreaders"
"475",6078,6089418,"complete","EXPERIMENT 1a","musicreaders","trial",15,2002.7,1,1,"neutral","neutral","musicreaders"
"476",6090,6089418,"complete","EXPERIMENT 1a","musicreaders","trial",16,2366.9,1,1,"valid","valid","musicreaders"
"477",6102,6089418,"complete","EXPERIMENT 1a","musicreaders","trial",17,1771,1,1,"invalid","invalid","musicreaders"
"478",6114,6089418,"complete","EXPERIMENT 1a","musicreaders","trial",18,1634.5,1,1,"neutral","neutral","musicreaders"
"479",6126,6089418,"complete","EXPERIMENT 1a","musicreaders","trial",19,2121.6,1,0,"invalid","invalid","musicreaders"
"480",6138,6089418,"complete","EXPERIMENT 1a","musicreaders","trial",20,1881,1,0,"valid","valid","musicreaders"
"481",6150,6089418,"complete","EXPERIMENT 1a","musicreaders","trial",21,1440.1,1,1,"valid","valid","musicreaders"
"482",6162,6089418,"complete","EXPERIMENT 1a","musicreaders","trial",22,1507.6,1,0,"valid","valid","musicreaders"
"483",6174,6089418,"complete","EXPERIMENT 1a","musicreaders","trial",23,1491.6,1,1,"neutral","neutral","musicreaders"
"484",6377,6089352,"complete","EXPERIMENT 1a","musicreaders","trial",1,4987.6,1,1,"invalid","invalid","musicreaders"
"485",6389,6089352,"complete","EXPERIMENT 1a","musicreaders","trial",2,2736,1,1,"valid","valid","musicreaders"
"486",6401,6089352,"complete","EXPERIMENT 1a","musicreaders","trial",3,2528,1,1,"valid","valid","musicreaders"
"487",6413,6089352,"complete","EXPERIMENT 1a","musicreaders","trial",4,2453.6,1,1,"neutral","neutral","musicreaders"
"488",6425,6089352,"complete","EXPERIMENT 1a","musicreaders","trial",5,2862.3,1,1,"valid","valid","musicreaders"
"489",6437,6089352,"complete","EXPERIMENT 1a","musicreaders","trial",6,1512.3,1,1,"invalid","invalid","musicreaders"
"490",6449,6089352,"complete","EXPERIMENT 1a","musicreaders","trial",7,1762.1,1,1,"valid","valid","musicreaders"
"491",6461,6089352,"complete","EXPERIMENT 1a","musicreaders","trial",8,3015.8,1,1,"invalid","invalid","musicreaders"
"492",6473,6089352,"complete","EXPERIMENT 1a","musicreaders","trial",9,1312.3,1,1,"valid","valid","musicreaders"
"493",6485,6089352,"complete","EXPERIMENT 1a","musicreaders","trial",10,1955.2,1,1,"valid","valid","musicreaders"
"494",6497,6089352,"complete","EXPERIMENT 1a","musicreaders","trial",11,1734.5,1,1,"valid","valid","musicreaders"
"495",6509,6089352,"complete","EXPERIMENT 1a","musicreaders","trial",12,2231.1,1,1,"neutral","neutral","musicreaders"
"496",6521,6089352,"complete","EXPERIMENT 1a","musicreaders","trial",13,1056.9,1,1,"invalid","invalid","musicreaders"
"497",6533,6089352,"complete","EXPERIMENT 1a","musicreaders","trial",14,2282.8,1,1,"valid","valid","musicreaders"
"498",6545,6089352,"complete","EXPERIMENT 1a","musicreaders","trial",15,1784.3,1,1,"valid","valid","musicreaders"
"499",6557,6089352,"complete","EXPERIMENT 1a","musicreaders","trial",16,1195.7,1,1,"neutral","neutral","musicreaders"
"500",6569,6089352,"complete","EXPERIMENT 1a","musicreaders","trial",17,2633.1,1,1,"neutral","neutral","musicreaders"
"501",6581,6089352,"complete","EXPERIMENT 1a","musicreaders","trial",18,3212.7,1,1,"valid","valid","musicreaders"
"502",6593,6089352,"complete","EXPERIMENT 1a","musicreaders","trial",19,1428.6,1,1,"valid","valid","musicreaders"
"503",6605,6089352,"complete","EXPERIMENT 1a","musicreaders","trial",20,1903.5,1,1,"valid","valid","musicreaders"
"504",6617,6089352,"complete","EXPERIMENT 1a","musicreaders","trial",21,1835.7,1,1,"valid","valid","musicreaders"
"505",6629,6089352,"complete","EXPERIMENT 1a","musicreaders","trial",22,1166.6,1,1,"valid","valid","musicreaders"
"506",6641,6089352,"complete","EXPERIMENT 1a","musicreaders","trial",23,1420.2,1,1,"valid","valid","musicreaders"
"507",6671,6089371,"complete","EXPERIMENT 1a","musicreaders","trial",1,2213.3,1,1,"neutral","neutral","musicreaders"
"508",6683,6089371,"complete","EXPERIMENT 1a","musicreaders","trial",2,3420.8,1,1,"valid","valid","musicreaders"
"509",6695,6089371,"complete","EXPERIMENT 1a","musicreaders","trial",3,2682.9,1,1,"valid","valid","musicreaders"
"510",6707,6089371,"complete","EXPERIMENT 1a","musicreaders","trial",4,1382,1,1,"invalid","invalid","musicreaders"
"511",6719,6089371,"complete","EXPERIMENT 1a","musicreaders","trial",5,1787.5,1,1,"valid","valid","musicreaders"
"512",6731,6089371,"complete","EXPERIMENT 1a","musicreaders","trial",6,1357.4,1,1,"neutral","neutral","musicreaders"
"513",6743,6089371,"complete","EXPERIMENT 1a","musicreaders","trial",7,2553.4,1,1,"valid","valid","musicreaders"
"514",6755,6089371,"complete","EXPERIMENT 1a","musicreaders","trial",8,1050.5,1,1,"valid","valid","musicreaders"
"515",6767,6089371,"complete","EXPERIMENT 1a","musicreaders","trial",9,3045.1,1,1,"valid","valid","musicreaders"
"516",6779,6089371,"complete","EXPERIMENT 1a","musicreaders","trial",10,2275.6,1,1,"neutral","neutral","musicreaders"
"517",6791,6089371,"complete","EXPERIMENT 1a","musicreaders","trial",11,1806.1,1,1,"valid","valid","musicreaders"
"518",6803,6089371,"complete","EXPERIMENT 1a","musicreaders","trial",12,1635.2,1,1,"valid","valid","musicreaders"
"519",6815,6089371,"complete","EXPERIMENT 1a","musicreaders","trial",13,1577.3,1,0,"valid","valid","musicreaders"
"520",6827,6089371,"complete","EXPERIMENT 1a","musicreaders","trial",14,1716.6,1,1,"valid","valid","musicreaders"
"521",6839,6089371,"complete","EXPERIMENT 1a","musicreaders","trial",15,2998.9,1,1,"valid","valid","musicreaders"
"522",6851,6089371,"complete","EXPERIMENT 1a","musicreaders","trial",16,2649.7,1,1,"valid","valid","musicreaders"
"523",6863,6089371,"complete","EXPERIMENT 1a","musicreaders","trial",17,1148.7,1,1,"invalid","invalid","musicreaders"
"524",6875,6089371,"complete","EXPERIMENT 1a","musicreaders","trial",18,1888.6,1,0,"neutral","neutral","musicreaders"
"525",6887,6089371,"complete","EXPERIMENT 1a","musicreaders","trial",19,1702.9,1,1,"valid","valid","musicreaders"
"526",6899,6089371,"complete","EXPERIMENT 1a","musicreaders","trial",20,706.9,1,1,"invalid","invalid","musicreaders"
"527",6911,6089371,"complete","EXPERIMENT 1a","musicreaders","trial",21,1693,1,1,"valid","valid","musicreaders"
"528",6923,6089371,"complete","EXPERIMENT 1a","musicreaders","trial",22,2223.6,1,1,"invalid","invalid","musicreaders"
"529",6935,6089371,"complete","EXPERIMENT 1a","musicreaders","trial",23,1489.7,1,0,"valid","valid","musicreaders"
"530",6965,6019256,"complete","EXPERIMENT 1a","musicreaders","trial",1,4213.2,1,1,"valid","valid","musicreaders"
"531",6977,6019256,"complete","EXPERIMENT 1a","musicreaders","trial",2,4504.7,1,1,"invalid","invalid","musicreaders"
"532",6989,6019256,"complete","EXPERIMENT 1a","musicreaders","trial",3,5102.3,1,1,"valid","valid","musicreaders"
"533",7001,6019256,"complete","EXPERIMENT 1a","musicreaders","trial",4,3036.3,1,1,"invalid","invalid","musicreaders"
"534",7013,6019256,"complete","EXPERIMENT 1a","musicreaders","trial",5,4059.3,1,1,"valid","valid","musicreaders"
"535",7025,6019256,"complete","EXPERIMENT 1a","musicreaders","trial",6,3075.5,1,0,"valid","valid","musicreaders"
"536",7037,6019256,"complete","EXPERIMENT 1a","musicreaders","trial",7,2330.4,1,1,"valid","valid","musicreaders"
"537",7049,6019256,"complete","EXPERIMENT 1a","musicreaders","trial",8,4286.5,1,1,"neutral","neutral","musicreaders"
"538",7061,6019256,"complete","EXPERIMENT 1a","musicreaders","trial",9,1693,1,1,"valid","valid","musicreaders"
"539",7073,6019256,"complete","EXPERIMENT 1a","musicreaders","trial",10,1546.9,1,1,"valid","valid","musicreaders"
"540",7085,6019256,"complete","EXPERIMENT 1a","musicreaders","trial",11,2502.4,1,1,"valid","valid","musicreaders"
"541",7097,6019256,"complete","EXPERIMENT 1a","musicreaders","trial",12,1835.6,1,1,"valid","valid","musicreaders"
"542",7109,6019256,"complete","EXPERIMENT 1a","musicreaders","trial",13,2803.6,1,1,"valid","valid","musicreaders"
"543",7121,6019256,"complete","EXPERIMENT 1a","musicreaders","trial",14,1845.4,1,1,"valid","valid","musicreaders"
"544",7133,6019256,"complete","EXPERIMENT 1a","musicreaders","trial",15,5244.4,1,0,"neutral","neutral","musicreaders"
"545",7145,6019256,"complete","EXPERIMENT 1a","musicreaders","trial",16,2108.2,1,1,"valid","valid","musicreaders"
"546",7157,6019256,"complete","EXPERIMENT 1a","musicreaders","trial",17,4441.6,1,1,"valid","valid","musicreaders"
"547",7169,6019256,"complete","EXPERIMENT 1a","musicreaders","trial",18,3922.5,1,0,"invalid","invalid","musicreaders"
"548",7181,6019256,"complete","EXPERIMENT 1a","musicreaders","trial",19,3487.5,1,1,"valid","valid","musicreaders"
"549",7193,6019256,"complete","EXPERIMENT 1a","musicreaders","trial",20,1557.3,1,1,"valid","valid","musicreaders"
"550",7205,6019256,"complete","EXPERIMENT 1a","musicreaders","trial",21,4424.6,1,0,"invalid","invalid","musicreaders"
"551",7217,6019256,"complete","EXPERIMENT 1a","musicreaders","trial",22,1929.9,1,1,"neutral","neutral","musicreaders"
"552",7229,6019256,"complete","EXPERIMENT 1a","musicreaders","trial",23,2429.5,1,1,"neutral","neutral","musicreaders"
"553",7259,6019261,"complete","EXPERIMENT 1a","musicreaders","trial",1,1507,1,1,"valid","valid","musicreaders"
"554",7271,6019261,"complete","EXPERIMENT 1a","musicreaders","trial",2,1843.4,1,1,"valid","valid","musicreaders"
"555",7283,6019261,"complete","EXPERIMENT 1a","musicreaders","trial",3,1439.3,1,1,"neutral","neutral","musicreaders"
"556",7295,6019261,"complete","EXPERIMENT 1a","musicreaders","trial",4,1774.8,1,1,"valid","valid","musicreaders"
"557",7307,6019261,"complete","EXPERIMENT 1a","musicreaders","trial",5,3110.9,1,1,"valid","valid","musicreaders"
"558",7319,6019261,"complete","EXPERIMENT 1a","musicreaders","trial",6,1992,1,0,"invalid","invalid","musicreaders"
"559",7331,6019261,"complete","EXPERIMENT 1a","musicreaders","trial",7,1974.3,1,0,"invalid","invalid","musicreaders"
"560",7343,6019261,"complete","EXPERIMENT 1a","musicreaders","trial",8,1354.9,1,0,"valid","valid","musicreaders"
"561",7355,6019261,"complete","EXPERIMENT 1a","musicreaders","trial",9,1272.2,1,1,"neutral","neutral","musicreaders"
"562",7367,6019261,"complete","EXPERIMENT 1a","musicreaders","trial",10,2152.7,1,1,"valid","valid","musicreaders"
"563",7379,6019261,"complete","EXPERIMENT 1a","musicreaders","trial",11,1241.9,1,1,"valid","valid","musicreaders"
"564",7391,6019261,"complete","EXPERIMENT 1a","musicreaders","trial",12,1878.6,1,0,"neutral","neutral","musicreaders"
"565",7403,6019261,"complete","EXPERIMENT 1a","musicreaders","trial",13,1596.4,1,0,"valid","valid","musicreaders"
"566",7415,6019261,"complete","EXPERIMENT 1a","musicreaders","trial",14,1270.7,1,1,"valid","valid","musicreaders"
"567",7427,6019261,"complete","EXPERIMENT 1a","musicreaders","trial",15,1143.9,1,1,"valid","valid","musicreaders"
"568",7439,6019261,"complete","EXPERIMENT 1a","musicreaders","trial",16,1696,1,1,"valid","valid","musicreaders"
"569",7451,6019261,"complete","EXPERIMENT 1a","musicreaders","trial",17,3002.3,1,0,"neutral","neutral","musicreaders"
"570",7463,6019261,"complete","EXPERIMENT 1a","musicreaders","trial",18,2277.5,1,1,"valid","valid","musicreaders"
"571",7475,6019261,"complete","EXPERIMENT 1a","musicreaders","trial",19,1631.7,1,1,"invalid","invalid","musicreaders"
"572",7487,6019261,"complete","EXPERIMENT 1a","musicreaders","trial",20,3804.5,1,1,"valid","valid","musicreaders"
"573",7499,6019261,"complete","EXPERIMENT 1a","musicreaders","trial",21,4834,1,1,"invalid","invalid","musicreaders"
"574",7511,6019261,"complete","EXPERIMENT 1a","musicreaders","trial",22,1392.6,1,1,"valid","valid","musicreaders"
"575",7523,6019261,"complete","EXPERIMENT 1a","musicreaders","trial",23,1416.9,1,0,"valid","valid","musicreaders"
"576",7553,6019236,"complete","EXPERIMENT 1a","musicreaders","trial",1,2702.3,1,0,"valid","valid","musicreaders"
"577",7565,6019236,"complete","EXPERIMENT 1a","musicreaders","trial",2,6199.5,1,1,"valid","valid","musicreaders"
"578",7577,6019236,"complete","EXPERIMENT 1a","musicreaders","trial",3,2750.7,1,0,"valid","valid","musicreaders"
"579",7589,6019236,"complete","EXPERIMENT 1a","musicreaders","trial",4,6941.1,1,1,"valid","valid","musicreaders"
"580",7601,6019236,"complete","EXPERIMENT 1a","musicreaders","trial",5,3408.5,1,0,"valid","valid","musicreaders"
"581",7613,6019236,"complete","EXPERIMENT 1a","musicreaders","trial",6,1667.8,1,0,"valid","valid","musicreaders"
"582",7625,6019236,"complete","EXPERIMENT 1a","musicreaders","trial",7,1715.1,1,1,"valid","valid","musicreaders"
"583",7637,6019236,"complete","EXPERIMENT 1a","musicreaders","trial",8,1241.1,1,1,"invalid","invalid","musicreaders"
"584",7649,6019236,"complete","EXPERIMENT 1a","musicreaders","trial",9,2471.1,1,1,"neutral","neutral","musicreaders"
"585",7661,6019236,"complete","EXPERIMENT 1a","musicreaders","trial",10,4234,1,1,"valid","valid","musicreaders"
"586",7673,6019236,"complete","EXPERIMENT 1a","musicreaders","trial",11,1273.3,1,1,"invalid","invalid","musicreaders"
"587",7685,6019236,"complete","EXPERIMENT 1a","musicreaders","trial",12,1137.6,1,1,"neutral","neutral","musicreaders"
"588",7697,6019236,"complete","EXPERIMENT 1a","musicreaders","trial",13,1737.9,1,0,"valid","valid","musicreaders"
"589",7709,6019236,"complete","EXPERIMENT 1a","musicreaders","trial",14,1672.4,1,0,"valid","valid","musicreaders"
"590",7721,6019236,"complete","EXPERIMENT 1a","musicreaders","trial",15,1790,1,1,"valid","valid","musicreaders"
"591",7733,6019236,"complete","EXPERIMENT 1a","musicreaders","trial",16,1825.5,1,1,"valid","valid","musicreaders"
"592",7745,6019236,"complete","EXPERIMENT 1a","musicreaders","trial",17,2574.2,1,1,"valid","valid","musicreaders"
"593",7757,6019236,"complete","EXPERIMENT 1a","musicreaders","trial",18,4271.8,1,0,"invalid","invalid","musicreaders"
"594",7769,6019236,"complete","EXPERIMENT 1a","musicreaders","trial",19,1282.4,1,1,"neutral","neutral","musicreaders"
"595",7781,6019236,"complete","EXPERIMENT 1a","musicreaders","trial",20,2928.6,1,1,"valid","valid","musicreaders"
"596",7793,6019236,"complete","EXPERIMENT 1a","musicreaders","trial",21,3430.1,1,1,"valid","valid","musicreaders"
"597",7805,6019236,"complete","EXPERIMENT 1a","musicreaders","trial",22,1314.5,1,1,"invalid","invalid","musicreaders"
"598",7817,6019236,"complete","EXPERIMENT 1a","musicreaders","trial",23,3029.2,1,1,"neutral","neutral","musicreaders"
"599",7847,6019255,"complete","EXPERIMENT 1a","musicreaders","trial",1,4546.2,1,0,"valid","valid","musicreaders"
"600",7859,6019255,"complete","EXPERIMENT 1a","musicreaders","trial",2,1094.9,1,1,"valid","valid","musicreaders"
"601",7871,6019255,"complete","EXPERIMENT 1a","musicreaders","trial",3,4263.2,1,0,"invalid","invalid","musicreaders"
"602",7883,6019255,"complete","EXPERIMENT 1a","musicreaders","trial",4,1660.2,1,1,"valid","valid","musicreaders"
"603",7895,6019255,"complete","EXPERIMENT 1a","musicreaders","trial",5,1603.5,1,0,"valid","valid","musicreaders"
"604",7907,6019255,"complete","EXPERIMENT 1a","musicreaders","trial",6,1557.8,1,0,"valid","valid","musicreaders"
"605",7919,6019255,"complete","EXPERIMENT 1a","musicreaders","trial",7,1331.4,1,1,"invalid","invalid","musicreaders"
"606",7931,6019255,"complete","EXPERIMENT 1a","musicreaders","trial",8,1343.4,1,1,"valid","valid","musicreaders"
"607",7943,6019255,"complete","EXPERIMENT 1a","musicreaders","trial",9,1139.8,1,1,"valid","valid","musicreaders"
"608",7955,6019255,"complete","EXPERIMENT 1a","musicreaders","trial",10,1300.7,1,1,"valid","valid","musicreaders"
"609",7967,6019255,"complete","EXPERIMENT 1a","musicreaders","trial",11,1472.1,1,1,"valid","valid","musicreaders"
"610",7979,6019255,"complete","EXPERIMENT 1a","musicreaders","trial",12,1523.4,1,0,"valid","valid","musicreaders"
"611",7991,6019255,"complete","EXPERIMENT 1a","musicreaders","trial",13,2363.3,1,1,"neutral","neutral","musicreaders"
"612",8003,6019255,"complete","EXPERIMENT 1a","musicreaders","trial",14,1155.8,1,1,"valid","valid","musicreaders"
"613",8015,6019255,"complete","EXPERIMENT 1a","musicreaders","trial",15,1145.5,1,1,"invalid","invalid","musicreaders"
"614",8027,6019255,"complete","EXPERIMENT 1a","musicreaders","trial",16,1686.9,1,0,"neutral","neutral","musicreaders"
"615",8039,6019255,"complete","EXPERIMENT 1a","musicreaders","trial",17,1337.6,1,1,"neutral","neutral","musicreaders"
"616",8051,6019255,"complete","EXPERIMENT 1a","musicreaders","trial",18,1152.6,1,1,"valid","valid","musicreaders"
"617",8063,6019255,"complete","EXPERIMENT 1a","musicreaders","trial",19,1142.1,1,1,"valid","valid","musicreaders"
"618",8075,6019255,"complete","EXPERIMENT 1a","musicreaders","trial",20,1300.1,1,1,"invalid","invalid","musicreaders"
"619",8087,6019255,"complete","EXPERIMENT 1a","musicreaders","trial",21,1236.2,1,1,"valid","valid","musicreaders"
"620",8099,6019255,"complete","EXPERIMENT 1a","musicreaders","trial",22,1086.4,1,1,"valid","valid","musicreaders"
"621",8111,6019255,"complete","EXPERIMENT 1a","musicreaders","trial",23,1497.4,1,1,"neutral","neutral","musicreaders"
"622",8141,6019248,"complete","EXPERIMENT 1a","musicreaders","trial",1,3613.3,1,0,"invalid","invalid","musicreaders"
"623",8153,6019248,"complete","EXPERIMENT 1a","musicreaders","trial",2,2286.2,1,1,"valid","valid","musicreaders"
"624",8165,6019248,"complete","EXPERIMENT 1a","musicreaders","trial",3,1599.8,1,1,"valid","valid","musicreaders"
"625",8177,6019248,"complete","EXPERIMENT 1a","musicreaders","trial",4,5267.9,1,1,"invalid","invalid","musicreaders"
"626",8189,6019248,"complete","EXPERIMENT 1a","musicreaders","trial",5,1503.6,1,1,"valid","valid","musicreaders"
"627",8201,6019248,"complete","EXPERIMENT 1a","musicreaders","trial",6,1701.1,1,1,"valid","valid","musicreaders"
"628",8213,6019248,"complete","EXPERIMENT 1a","musicreaders","trial",7,1611.6,1,1,"neutral","neutral","musicreaders"
"629",8225,6019248,"complete","EXPERIMENT 1a","musicreaders","trial",8,1609.5,1,1,"valid","valid","musicreaders"
"630",8237,6019248,"complete","EXPERIMENT 1a","musicreaders","trial",9,1289.4,1,1,"valid","valid","musicreaders"
"631",8249,6019248,"complete","EXPERIMENT 1a","musicreaders","trial",10,5831.9,1,0,"valid","valid","musicreaders"
"632",8261,6019248,"complete","EXPERIMENT 1a","musicreaders","trial",11,1399.4,1,1,"valid","valid","musicreaders"
"633",8273,6019248,"complete","EXPERIMENT 1a","musicreaders","trial",12,6941,1,1,"neutral","neutral","musicreaders"
"634",8285,6019248,"complete","EXPERIMENT 1a","musicreaders","trial",13,1535,1,0,"valid","valid","musicreaders"
"635",8297,6019248,"complete","EXPERIMENT 1a","musicreaders","trial",14,1275.8,1,1,"valid","valid","musicreaders"
"636",8309,6019248,"complete","EXPERIMENT 1a","musicreaders","trial",15,2499.5,1,1,"valid","valid","musicreaders"
"637",8321,6019248,"complete","EXPERIMENT 1a","musicreaders","trial",16,2275,1,1,"valid","valid","musicreaders"
"638",8333,6019248,"complete","EXPERIMENT 1a","musicreaders","trial",17,2113.8,1,0,"invalid","invalid","musicreaders"
"639",8345,6019248,"complete","EXPERIMENT 1a","musicreaders","trial",18,2747.3,1,1,"valid","valid","musicreaders"
"640",8357,6019248,"complete","EXPERIMENT 1a","musicreaders","trial",19,2404.1,1,0,"neutral","neutral","musicreaders"
"641",8369,6019248,"complete","EXPERIMENT 1a","musicreaders","trial",20,1208.7,1,1,"valid","valid","musicreaders"
"642",8381,6019248,"complete","EXPERIMENT 1a","musicreaders","trial",21,2754.1,1,1,"valid","valid","musicreaders"
"643",8393,6019248,"complete","EXPERIMENT 1a","musicreaders","trial",22,2758.5,1,0,"invalid","invalid","musicreaders"
"644",8405,6019248,"complete","EXPERIMENT 1a","musicreaders","trial",23,2044.5,1,0,"neutral","neutral","musicreaders"
"645",8435,6019247,"complete","EXPERIMENT 1a","musicreaders","trial",1,1112,1,1,"valid","valid","musicreaders"
"646",8447,6019247,"complete","EXPERIMENT 1a","musicreaders","trial",2,982,1,1,"valid","valid","musicreaders"
"647",8459,6019247,"complete","EXPERIMENT 1a","musicreaders","trial",3,7368,1,1,"invalid","invalid","musicreaders"
"648",8471,6019247,"complete","EXPERIMENT 1a","musicreaders","trial",4,1123,1,1,"valid","valid","musicreaders"
"649",8483,6019247,"complete","EXPERIMENT 1a","musicreaders","trial",5,3536,1,1,"invalid","invalid","musicreaders"
"650",8495,6019247,"complete","EXPERIMENT 1a","musicreaders","trial",6,1923,1,1,"valid","valid","musicreaders"
"651",8507,6019247,"complete","EXPERIMENT 1a","musicreaders","trial",7,2133,1,1,"neutral","neutral","musicreaders"
"652",8519,6019247,"complete","EXPERIMENT 1a","musicreaders","trial",8,2421,1,0,"valid","valid","musicreaders"
"653",8531,6019247,"complete","EXPERIMENT 1a","musicreaders","trial",9,1298,1,1,"invalid","invalid","musicreaders"
"654",8543,6019247,"complete","EXPERIMENT 1a","musicreaders","trial",10,897,1,1,"valid","valid","musicreaders"
"655",8555,6019247,"complete","EXPERIMENT 1a","musicreaders","trial",11,1757,1,1,"neutral","neutral","musicreaders"
"656",8567,6019247,"complete","EXPERIMENT 1a","musicreaders","trial",12,1849,1,1,"valid","valid","musicreaders"
"657",8579,6019247,"complete","EXPERIMENT 1a","musicreaders","trial",13,906,1,0,"valid","valid","musicreaders"
"658",8591,6019247,"complete","EXPERIMENT 1a","musicreaders","trial",14,1533,1,1,"valid","valid","musicreaders"
"659",8603,6019247,"complete","EXPERIMENT 1a","musicreaders","trial",15,856,1,1,"valid","valid","musicreaders"
"660",8615,6019247,"complete","EXPERIMENT 1a","musicreaders","trial",16,1708,1,1,"invalid","invalid","musicreaders"
"661",8627,6019247,"complete","EXPERIMENT 1a","musicreaders","trial",17,1756,1,1,"neutral","neutral","musicreaders"
"662",8639,6019247,"complete","EXPERIMENT 1a","musicreaders","trial",18,2157,1,0,"valid","valid","musicreaders"
"663",8651,6019247,"complete","EXPERIMENT 1a","musicreaders","trial",19,1070,1,1,"valid","valid","musicreaders"
"664",8663,6019247,"complete","EXPERIMENT 1a","musicreaders","trial",20,2227,1,1,"valid","valid","musicreaders"
"665",8675,6019247,"complete","EXPERIMENT 1a","musicreaders","trial",21,3946,1,0,"neutral","neutral","musicreaders"
"666",8687,6019247,"complete","EXPERIMENT 1a","musicreaders","trial",22,983,1,1,"valid","valid","musicreaders"
"667",8699,6019247,"complete","EXPERIMENT 1a","musicreaders","trial",23,1716,1,1,"valid","valid","musicreaders"
"668",8729,6019159,"complete","EXPERIMENT 1a","musicreaders","trial",1,2751.4,1,1,"valid","valid","musicreaders"
"669",8741,6019159,"complete","EXPERIMENT 1a","musicreaders","trial",2,3631.3,1,1,"valid","valid","musicreaders"
"670",8753,6019159,"complete","EXPERIMENT 1a","musicreaders","trial",3,2514.8,1,0,"neutral","neutral","musicreaders"
"671",8765,6019159,"complete","EXPERIMENT 1a","musicreaders","trial",4,5379.9,1,0,"valid","valid","musicreaders"
"672",8777,6019159,"complete","EXPERIMENT 1a","musicreaders","trial",5,2697.4,1,1,"valid","valid","musicreaders"
"673",8789,6019159,"complete","EXPERIMENT 1a","musicreaders","trial",6,3058.1,1,0,"neutral","neutral","musicreaders"
"674",8801,6019159,"complete","EXPERIMENT 1a","musicreaders","trial",7,2293.6,1,0,"neutral","neutral","musicreaders"
"675",8813,6019159,"complete","EXPERIMENT 1a","musicreaders","trial",8,2060.4,1,1,"valid","valid","musicreaders"
"676",8825,6019159,"complete","EXPERIMENT 1a","musicreaders","trial",9,2590.1,1,1,"valid","valid","musicreaders"
"677",8837,6019159,"complete","EXPERIMENT 1a","musicreaders","trial",10,1690.1,1,1,"valid","valid","musicreaders"
"678",8849,6019159,"complete","EXPERIMENT 1a","musicreaders","trial",11,2462.5,1,1,"invalid","invalid","musicreaders"
"679",8861,6019159,"complete","EXPERIMENT 1a","musicreaders","trial",12,2057.4,1,0,"valid","valid","musicreaders"
"680",8873,6019159,"complete","EXPERIMENT 1a","musicreaders","trial",13,1572.6,1,1,"valid","valid","musicreaders"
"681",8885,6019159,"complete","EXPERIMENT 1a","musicreaders","trial",14,1429.9,1,1,"valid","valid","musicreaders"
"682",8897,6019159,"complete","EXPERIMENT 1a","musicreaders","trial",15,2514.8,1,1,"invalid","invalid","musicreaders"
"683",8909,6019159,"complete","EXPERIMENT 1a","musicreaders","trial",16,1367.1,1,1,"valid","valid","musicreaders"
"684",8921,6019159,"complete","EXPERIMENT 1a","musicreaders","trial",17,3981.4,1,1,"valid","valid","musicreaders"
"685",8933,6019159,"complete","EXPERIMENT 1a","musicreaders","trial",18,1689,1,1,"valid","valid","musicreaders"
"686",8945,6019159,"complete","EXPERIMENT 1a","musicreaders","trial",19,1417.3,1,1,"invalid","invalid","musicreaders"
"687",8957,6019159,"complete","EXPERIMENT 1a","musicreaders","trial",20,1444.5,1,1,"invalid","invalid","musicreaders"
"688",8969,6019159,"complete","EXPERIMENT 1a","musicreaders","trial",21,1293.1,1,1,"valid","valid","musicreaders"
"689",8981,6019159,"complete","EXPERIMENT 1a","musicreaders","trial",22,1460.5,1,1,"valid","valid","musicreaders"
"690",8993,6019159,"complete","EXPERIMENT 1a","musicreaders","trial",23,1963.9,1,1,"neutral","neutral","musicreaders"
"691",9023,6019174,"complete","EXPERIMENT 1a","musicreaders","trial",1,6016.6,1,0,"neutral","neutral","musicreaders"
"692",9035,6019174,"complete","EXPERIMENT 1a","musicreaders","trial",2,11020.5,1,1,"invalid","invalid","musicreaders"
"693",9047,6019174,"complete","EXPERIMENT 1a","musicreaders","trial",3,2535.7,1,1,"valid","valid","musicreaders"
"694",9059,6019174,"complete","EXPERIMENT 1a","musicreaders","trial",4,1675.6,1,1,"valid","valid","musicreaders"
"695",9071,6019174,"complete","EXPERIMENT 1a","musicreaders","trial",5,2049.7,1,1,"invalid","invalid","musicreaders"
"696",9083,6019174,"complete","EXPERIMENT 1a","musicreaders","trial",6,4307.3,1,0,"valid","valid","musicreaders"
"697",9095,6019174,"complete","EXPERIMENT 1a","musicreaders","trial",7,2164.6,1,1,"valid","valid","musicreaders"
"698",9107,6019174,"complete","EXPERIMENT 1a","musicreaders","trial",8,2241.6,1,0,"neutral","neutral","musicreaders"
"699",9119,6019174,"complete","EXPERIMENT 1a","musicreaders","trial",9,2983.2,1,1,"invalid","invalid","musicreaders"
"700",9131,6019174,"complete","EXPERIMENT 1a","musicreaders","trial",10,1802.5,1,1,"valid","valid","musicreaders"
"701",9143,6019174,"complete","EXPERIMENT 1a","musicreaders","trial",11,2404,1,1,"neutral","neutral","musicreaders"
"702",9155,6019174,"complete","EXPERIMENT 1a","musicreaders","trial",12,2394.6,1,1,"valid","valid","musicreaders"
"703",9167,6019174,"complete","EXPERIMENT 1a","musicreaders","trial",13,2159.1,1,0,"valid","valid","musicreaders"
"704",9179,6019174,"complete","EXPERIMENT 1a","musicreaders","trial",14,1805.1,1,1,"valid","valid","musicreaders"
"705",9191,6019174,"complete","EXPERIMENT 1a","musicreaders","trial",15,1791,1,1,"valid","valid","musicreaders"
"706",9203,6019174,"complete","EXPERIMENT 1a","musicreaders","trial",16,1395.9,1,0,"valid","valid","musicreaders"
"707",9215,6019174,"complete","EXPERIMENT 1a","musicreaders","trial",17,2353.7,1,0,"invalid","invalid","musicreaders"
"708",9227,6019174,"complete","EXPERIMENT 1a","musicreaders","trial",18,1407,1,1,"valid","valid","musicreaders"
"709",9239,6019174,"complete","EXPERIMENT 1a","musicreaders","trial",19,1589.9,1,1,"valid","valid","musicreaders"
"710",9251,6019174,"complete","EXPERIMENT 1a","musicreaders","trial",20,1479,1,1,"valid","valid","musicreaders"
"711",9263,6019174,"complete","EXPERIMENT 1a","musicreaders","trial",21,1140.3,1,1,"valid","valid","musicreaders"
"712",9275,6019174,"complete","EXPERIMENT 1a","musicreaders","trial",22,1579.2,1,1,"valid","valid","musicreaders"
"713",9287,6019174,"complete","EXPERIMENT 1a","musicreaders","trial",23,1550.2,1,1,"neutral","neutral","musicreaders"
"714",9317,6019168,"complete","EXPERIMENT 1a","musicreaders","trial",1,2479.4,1,1,"invalid","invalid","musicreaders"
"715",9329,6019168,"complete","EXPERIMENT 1a","musicreaders","trial",2,3144.7,1,1,"valid","valid","musicreaders"
"716",9341,6019168,"complete","EXPERIMENT 1a","musicreaders","trial",3,2207.2,1,0,"neutral","neutral","musicreaders"
"717",9353,6019168,"complete","EXPERIMENT 1a","musicreaders","trial",4,3136.2,1,0,"invalid","invalid","musicreaders"
"718",9365,6019168,"complete","EXPERIMENT 1a","musicreaders","trial",5,1605.1,1,1,"valid","valid","musicreaders"
"719",9377,6019168,"complete","EXPERIMENT 1a","musicreaders","trial",6,1319.6,1,0,"valid","valid","musicreaders"
"720",9389,6019168,"complete","EXPERIMENT 1a","musicreaders","trial",7,2162.5,1,1,"neutral","neutral","musicreaders"
"721",9401,6019168,"complete","EXPERIMENT 1a","musicreaders","trial",8,1208.4,1,0,"valid","valid","musicreaders"
"722",9413,6019168,"complete","EXPERIMENT 1a","musicreaders","trial",9,3027.1,1,1,"invalid","invalid","musicreaders"
"723",9425,6019168,"complete","EXPERIMENT 1a","musicreaders","trial",10,2437.8,1,0,"neutral","neutral","musicreaders"
"724",9437,6019168,"complete","EXPERIMENT 1a","musicreaders","trial",11,2007.6,1,1,"valid","valid","musicreaders"
"725",9449,6019168,"complete","EXPERIMENT 1a","musicreaders","trial",12,1407.1,1,1,"valid","valid","musicreaders"
"726",9461,6019168,"complete","EXPERIMENT 1a","musicreaders","trial",13,2312,1,0,"valid","valid","musicreaders"
"727",9473,6019168,"complete","EXPERIMENT 1a","musicreaders","trial",14,1953.6,1,0,"neutral","neutral","musicreaders"
"728",9485,6019168,"complete","EXPERIMENT 1a","musicreaders","trial",15,1693.4,1,1,"invalid","invalid","musicreaders"
"729",9497,6019168,"complete","EXPERIMENT 1a","musicreaders","trial",16,1857.5,1,1,"valid","valid","musicreaders"
"730",9509,6019168,"complete","EXPERIMENT 1a","musicreaders","trial",17,1894.5,1,1,"valid","valid","musicreaders"
"731",9521,6019168,"complete","EXPERIMENT 1a","musicreaders","trial",18,1949.2,1,1,"valid","valid","musicreaders"
"732",9533,6019168,"complete","EXPERIMENT 1a","musicreaders","trial",19,1953.2,1,1,"valid","valid","musicreaders"
"733",9545,6019168,"complete","EXPERIMENT 1a","musicreaders","trial",20,1288.1,1,0,"valid","valid","musicreaders"
"734",9557,6019168,"complete","EXPERIMENT 1a","musicreaders","trial",21,2336,1,0,"valid","valid","musicreaders"
"735",9569,6019168,"complete","EXPERIMENT 1a","musicreaders","trial",22,4490.7,1,0,"valid","valid","musicreaders"
"736",9581,6019168,"complete","EXPERIMENT 1a","musicreaders","trial",23,1705.9,1,1,"valid","valid","musicreaders"
"737",9611,6019172,"complete","EXPERIMENT 1a","musicreaders","trial",1,4463.6,1,0,"valid","valid","musicreaders"
"738",9623,6019172,"complete","EXPERIMENT 1a","musicreaders","trial",2,4853.2,1,1,"valid","valid","musicreaders"
"739",9636,6019172,"complete","EXPERIMENT 1a","musicreaders","trial",3,5047.5,1,0,"valid","valid","musicreaders"
"740",9648,6019172,"complete","EXPERIMENT 1a","musicreaders","trial",4,2837.9,1,1,"invalid","invalid","musicreaders"
"741",9660,6019172,"complete","EXPERIMENT 1a","musicreaders","trial",5,3108.6,1,0,"valid","valid","musicreaders"
"742",9672,6019172,"complete","EXPERIMENT 1a","musicreaders","trial",6,5540.7,1,0,"neutral","neutral","musicreaders"
"743",9684,6019172,"complete","EXPERIMENT 1a","musicreaders","trial",7,2631,1,1,"neutral","neutral","musicreaders"
"744",9696,6019172,"complete","EXPERIMENT 1a","musicreaders","trial",8,2073.1,1,0,"valid","valid","musicreaders"
"745",9708,6019172,"complete","EXPERIMENT 1a","musicreaders","trial",9,3066.6,1,0,"valid","valid","musicreaders"
"746",9720,6019172,"complete","EXPERIMENT 1a","musicreaders","trial",10,4668.3,1,0,"valid","valid","musicreaders"
"747",9732,6019172,"complete","EXPERIMENT 1a","musicreaders","trial",11,3095,1,1,"neutral","neutral","musicreaders"
"748",9744,6019172,"complete","EXPERIMENT 1a","musicreaders","trial",12,2498.9,1,1,"invalid","invalid","musicreaders"
"749",9756,6019172,"complete","EXPERIMENT 1a","musicreaders","trial",13,4575.4,1,0,"valid","valid","musicreaders"
"750",9768,6019172,"complete","EXPERIMENT 1a","musicreaders","trial",14,2272,1,1,"valid","valid","musicreaders"
"751",9780,6019172,"complete","EXPERIMENT 1a","musicreaders","trial",15,3231.6,1,1,"valid","valid","musicreaders"
"752",9792,6019172,"complete","EXPERIMENT 1a","musicreaders","trial",16,2835.6,1,0,"valid","valid","musicreaders"
"753",9805,6019172,"complete","EXPERIMENT 1a","musicreaders","trial",17,2024.9,1,1,"valid","valid","musicreaders"
"754",9817,6019172,"complete","EXPERIMENT 1a","musicreaders","trial",18,1549.8,1,1,"valid","valid","musicreaders"
"755",9829,6019172,"complete","EXPERIMENT 1a","musicreaders","trial",19,1251.8,1,1,"valid","valid","musicreaders"
"756",9841,6019172,"complete","EXPERIMENT 1a","musicreaders","trial",20,2617.3,1,0,"invalid","invalid","musicreaders"
"757",9853,6019172,"complete","EXPERIMENT 1a","musicreaders","trial",21,2132.2,1,0,"invalid","invalid","musicreaders"
"758",9865,6019172,"complete","EXPERIMENT 1a","musicreaders","trial",22,1644.5,1,1,"valid","valid","musicreaders"
"759",9877,6019172,"complete","EXPERIMENT 1a","musicreaders","trial",23,1596.4,1,1,"neutral","neutral","musicreaders"
"760",9907,5858137,"complete","EXPERIMENT 1a","musicreaders","trial",1,3091.2,1,0,"valid","valid","musicreaders"
"761",9919,5858137,"complete","EXPERIMENT 1a","musicreaders","trial",2,8521.8,1,0,"valid","valid","musicreaders"
"762",9931,5858137,"complete","EXPERIMENT 1a","musicreaders","trial",3,2535.3,1,1,"invalid","invalid","musicreaders"
"763",9943,5858137,"complete","EXPERIMENT 1a","musicreaders","trial",4,2948.9,1,1,"valid","valid","musicreaders"
"764",9955,5858137,"complete","EXPERIMENT 1a","musicreaders","trial",5,2810.6,1,1,"valid","valid","musicreaders"
"765",9967,5858137,"complete","EXPERIMENT 1a","musicreaders","trial",6,1982.8,1,1,"valid","valid","musicreaders"
"766",9979,5858137,"complete","EXPERIMENT 1a","musicreaders","trial",7,2647.8,1,1,"valid","valid","musicreaders"
"767",9991,5858137,"complete","EXPERIMENT 1a","musicreaders","trial",8,1793.6,1,1,"valid","valid","musicreaders"
"768",10003,5858137,"complete","EXPERIMENT 1a","musicreaders","trial",9,2240.5,1,1,"neutral","neutral","musicreaders"
"769",10015,5858137,"complete","EXPERIMENT 1a","musicreaders","trial",10,2276.5,1,1,"valid","valid","musicreaders"
"770",10027,5858137,"complete","EXPERIMENT 1a","musicreaders","trial",11,1928.4,1,1,"valid","valid","musicreaders"
"771",10039,5858137,"complete","EXPERIMENT 1a","musicreaders","trial",12,2339.8,1,0,"neutral","neutral","musicreaders"
"772",10051,5858137,"complete","EXPERIMENT 1a","musicreaders","trial",13,2676.4,1,1,"valid","valid","musicreaders"
"773",10063,5858137,"complete","EXPERIMENT 1a","musicreaders","trial",14,2706.5,1,1,"valid","valid","musicreaders"
"774",10075,5858137,"complete","EXPERIMENT 1a","musicreaders","trial",15,1916.8,1,1,"invalid","invalid","musicreaders"
"775",10087,5858137,"complete","EXPERIMENT 1a","musicreaders","trial",16,1984,1,1,"neutral","neutral","musicreaders"
"776",10099,5858137,"complete","EXPERIMENT 1a","musicreaders","trial",17,1991.1,1,1,"neutral","neutral","musicreaders"
"777",10111,5858137,"complete","EXPERIMENT 1a","musicreaders","trial",18,2777.4,1,1,"valid","valid","musicreaders"
"778",10123,5858137,"complete","EXPERIMENT 1a","musicreaders","trial",19,2127,1,1,"invalid","invalid","musicreaders"
"779",10135,5858137,"complete","EXPERIMENT 1a","musicreaders","trial",20,2569.7,1,1,"valid","valid","musicreaders"
"780",10147,5858137,"complete","EXPERIMENT 1a","musicreaders","trial",21,1967.3,1,1,"invalid","invalid","musicreaders"
"781",10159,5858137,"complete","EXPERIMENT 1a","musicreaders","trial",22,1776.3,1,1,"valid","valid","musicreaders"
"782",10171,5858137,"complete","EXPERIMENT 1a","musicreaders","trial",23,1946.6,1,1,"valid","valid","musicreaders"
"783",10201,5858165,"complete","EXPERIMENT 1a","musicreaders","trial",1,2045.6,1,0,"neutral","neutral","musicreaders"
"784",10213,5858165,"complete","EXPERIMENT 1a","musicreaders","trial",2,1654.9,1,1,"valid","valid","musicreaders"
"785",10225,5858165,"complete","EXPERIMENT 1a","musicreaders","trial",3,1473.6,1,1,"invalid","invalid","musicreaders"
"786",10237,5858165,"complete","EXPERIMENT 1a","musicreaders","trial",4,1055.9,1,1,"valid","valid","musicreaders"
"787",10249,5858165,"complete","EXPERIMENT 1a","musicreaders","trial",5,1486.1,1,1,"neutral","neutral","musicreaders"
"788",10261,5858165,"complete","EXPERIMENT 1a","musicreaders","trial",6,1198.3,1,1,"invalid","invalid","musicreaders"
"789",10273,5858165,"complete","EXPERIMENT 1a","musicreaders","trial",7,2115.3,1,1,"neutral","neutral","musicreaders"
"790",10285,5858165,"complete","EXPERIMENT 1a","musicreaders","trial",8,2154.8,1,1,"valid","valid","musicreaders"
"791",10297,5858165,"complete","EXPERIMENT 1a","musicreaders","trial",9,1843.4,1,1,"valid","valid","musicreaders"
"792",10309,5858165,"complete","EXPERIMENT 1a","musicreaders","trial",10,1090,1,1,"invalid","invalid","musicreaders"
"793",10321,5858165,"complete","EXPERIMENT 1a","musicreaders","trial",11,1569.7,1,1,"valid","valid","musicreaders"
"794",10333,5858165,"complete","EXPERIMENT 1a","musicreaders","trial",12,1700.6,1,1,"valid","valid","musicreaders"
"795",10345,5858165,"complete","EXPERIMENT 1a","musicreaders","trial",13,1200.6,1,1,"valid","valid","musicreaders"
"796",10357,5858165,"complete","EXPERIMENT 1a","musicreaders","trial",14,1154.4,1,1,"valid","valid","musicreaders"
"797",10369,5858165,"complete","EXPERIMENT 1a","musicreaders","trial",15,1214.2,1,1,"valid","valid","musicreaders"
"798",10381,5858165,"complete","EXPERIMENT 1a","musicreaders","trial",16,1097.4,1,1,"valid","valid","musicreaders"
"799",10393,5858165,"complete","EXPERIMENT 1a","musicreaders","trial",17,1083.9,1,1,"valid","valid","musicreaders"
"800",10405,5858165,"complete","EXPERIMENT 1a","musicreaders","trial",18,1039.5,1,1,"neutral","neutral","musicreaders"
"801",10417,5858165,"complete","EXPERIMENT 1a","musicreaders","trial",19,972.2,1,1,"valid","valid","musicreaders"
"802",10429,5858165,"complete","EXPERIMENT 1a","musicreaders","trial",20,3733.3,1,1,"invalid","invalid","musicreaders"
"803",10441,5858165,"complete","EXPERIMENT 1a","musicreaders","trial",21,2225.8,1,1,"valid","valid","musicreaders"
"804",10453,5858165,"complete","EXPERIMENT 1a","musicreaders","trial",22,1609.4,1,1,"valid","valid","musicreaders"
"805",10465,5858165,"complete","EXPERIMENT 1a","musicreaders","trial",23,1170.6,1,1,"valid","valid","musicreaders"
"806",10495,5858136,"complete","EXPERIMENT 1a","musicreaders","trial",1,4805,1,1,"valid","valid","musicreaders"
"807",10507,5858136,"complete","EXPERIMENT 1a","musicreaders","trial",2,3375,1,0,"invalid","invalid","musicreaders"
"808",10519,5858136,"complete","EXPERIMENT 1a","musicreaders","trial",3,2706,1,1,"valid","valid","musicreaders"
"809",10531,5858136,"complete","EXPERIMENT 1a","musicreaders","trial",4,2405,1,0,"invalid","invalid","musicreaders"
"810",10543,5858136,"complete","EXPERIMENT 1a","musicreaders","trial",5,1693,1,1,"valid","valid","musicreaders"
"811",10555,5858136,"complete","EXPERIMENT 1a","musicreaders","trial",6,2020,1,1,"valid","valid","musicreaders"
"812",10567,5858136,"complete","EXPERIMENT 1a","musicreaders","trial",7,9843,1,0,"neutral","neutral","musicreaders"
"813",10579,5858136,"complete","EXPERIMENT 1a","musicreaders","trial",8,4514,1,0,"invalid","invalid","musicreaders"
"814",10591,5858136,"complete","EXPERIMENT 1a","musicreaders","trial",9,3217,1,0,"neutral","neutral","musicreaders"
"815",10603,5858136,"complete","EXPERIMENT 1a","musicreaders","trial",10,1916,1,1,"valid","valid","musicreaders"
"816",10615,5858136,"complete","EXPERIMENT 1a","musicreaders","trial",11,2972,1,0,"valid","valid","musicreaders"
"817",10627,5858136,"complete","EXPERIMENT 1a","musicreaders","trial",12,2636,1,1,"valid","valid","musicreaders"
"818",10639,5858136,"complete","EXPERIMENT 1a","musicreaders","trial",13,3188,1,1,"valid","valid","musicreaders"
"819",10651,5858136,"complete","EXPERIMENT 1a","musicreaders","trial",14,1545,1,1,"valid","valid","musicreaders"
"820",10663,5858136,"complete","EXPERIMENT 1a","musicreaders","trial",15,2251,1,1,"valid","valid","musicreaders"
"821",10675,5858136,"complete","EXPERIMENT 1a","musicreaders","trial",16,2272,1,0,"neutral","neutral","musicreaders"
"822",10687,5858136,"complete","EXPERIMENT 1a","musicreaders","trial",17,1441,1,1,"neutral","neutral","musicreaders"
"823",10699,5858136,"complete","EXPERIMENT 1a","musicreaders","trial",18,4393,1,0,"valid","valid","musicreaders"
"824",10711,5858136,"complete","EXPERIMENT 1a","musicreaders","trial",19,2312,1,1,"valid","valid","musicreaders"
"825",10723,5858136,"complete","EXPERIMENT 1a","musicreaders","trial",20,2196,1,1,"invalid","invalid","musicreaders"
"826",10735,5858136,"complete","EXPERIMENT 1a","musicreaders","trial",21,1829,1,0,"valid","valid","musicreaders"
"827",10747,5858136,"complete","EXPERIMENT 1a","musicreaders","trial",22,4848,1,1,"valid","valid","musicreaders"
"828",10759,5858136,"complete","EXPERIMENT 1a","musicreaders","trial",23,2238,1,0,"valid","valid","musicreaders"
"829",10789,5858191,"complete","EXPERIMENT 1a","musicreaders","trial",1,4372.3,1,1,"neutral","neutral","musicreaders"
"830",10801,5858191,"complete","EXPERIMENT 1a","musicreaders","trial",2,3234.8,1,0,"valid","valid","musicreaders"
"831",10813,5858191,"complete","EXPERIMENT 1a","musicreaders","trial",3,2498.2,1,0,"valid","valid","musicreaders"
"832",10825,5858191,"complete","EXPERIMENT 1a","musicreaders","trial",4,4253.4,1,1,"invalid","invalid","musicreaders"
"833",10837,5858191,"complete","EXPERIMENT 1a","musicreaders","trial",5,3249.6,1,1,"valid","valid","musicreaders"
"834",10849,5858191,"complete","EXPERIMENT 1a","musicreaders","trial",6,4821.2,1,1,"invalid","invalid","musicreaders"
"835",10861,5858191,"complete","EXPERIMENT 1a","musicreaders","trial",7,3050.5,1,0,"valid","valid","musicreaders"
"836",10873,5858191,"complete","EXPERIMENT 1a","musicreaders","trial",8,2619.5,1,0,"valid","valid","musicreaders"
"837",10885,5858191,"complete","EXPERIMENT 1a","musicreaders","trial",9,2455.7,1,1,"neutral","neutral","musicreaders"
"838",10897,5858191,"complete","EXPERIMENT 1a","musicreaders","trial",10,2077.7,1,1,"valid","valid","musicreaders"
"839",10909,5858191,"complete","EXPERIMENT 1a","musicreaders","trial",11,1687.9,1,1,"valid","valid","musicreaders"
"840",10921,5858191,"complete","EXPERIMENT 1a","musicreaders","trial",12,3235.5,1,1,"valid","valid","musicreaders"
"841",10933,5858191,"complete","EXPERIMENT 1a","musicreaders","trial",13,2941,1,1,"invalid","invalid","musicreaders"
"842",10945,5858191,"complete","EXPERIMENT 1a","musicreaders","trial",14,2202.9,1,1,"valid","valid","musicreaders"
"843",10957,5858191,"complete","EXPERIMENT 1a","musicreaders","trial",15,1749.4,1,1,"neutral","neutral","musicreaders"
"844",10969,5858191,"complete","EXPERIMENT 1a","musicreaders","trial",16,1449.6,1,1,"neutral","neutral","musicreaders"
"845",10981,5858191,"complete","EXPERIMENT 1a","musicreaders","trial",17,1424.7,1,1,"valid","valid","musicreaders"
"846",10993,5858191,"complete","EXPERIMENT 1a","musicreaders","trial",18,2210.6,1,1,"valid","valid","musicreaders"
"847",11005,5858191,"complete","EXPERIMENT 1a","musicreaders","trial",19,1770.7,1,1,"valid","valid","musicreaders"
"848",11017,5858191,"complete","EXPERIMENT 1a","musicreaders","trial",20,1746.9,1,1,"valid","valid","musicreaders"
"849",11029,5858191,"complete","EXPERIMENT 1a","musicreaders","trial",21,1365.5,1,1,"valid","valid","musicreaders"
"850",11041,5858191,"complete","EXPERIMENT 1a","musicreaders","trial",22,2132.3,1,1,"valid","valid","musicreaders"
"851",11053,5858191,"complete","EXPERIMENT 1a","musicreaders","trial",23,1863.3,1,1,"invalid","invalid","musicreaders"
"852",11083,5858156,"complete","EXPERIMENT 1a","musicreaders","trial",1,9765,1,1,"neutral","neutral","musicreaders"
"853",11095,5858156,"complete","EXPERIMENT 1a","musicreaders","trial",2,3510.6,1,1,"invalid","invalid","musicreaders"
"854",11107,5858156,"complete","EXPERIMENT 1a","musicreaders","trial",3,1930.1,1,1,"invalid","invalid","musicreaders"
"855",11119,5858156,"complete","EXPERIMENT 1a","musicreaders","trial",4,1794,1,1,"valid","valid","musicreaders"
"856",11131,5858156,"complete","EXPERIMENT 1a","musicreaders","trial",5,2731.9,1,1,"valid","valid","musicreaders"
"857",11143,5858156,"complete","EXPERIMENT 1a","musicreaders","trial",6,2133.5,1,1,"invalid","invalid","musicreaders"
"858",11155,5858156,"complete","EXPERIMENT 1a","musicreaders","trial",7,1357.7,1,1,"valid","valid","musicreaders"
"859",11167,5858156,"complete","EXPERIMENT 1a","musicreaders","trial",8,3473.8,1,1,"valid","valid","musicreaders"
"860",11179,5858156,"complete","EXPERIMENT 1a","musicreaders","trial",9,1403.6,1,1,"valid","valid","musicreaders"
"861",11191,5858156,"complete","EXPERIMENT 1a","musicreaders","trial",10,1309.8,1,1,"invalid","invalid","musicreaders"
"862",11203,5858156,"complete","EXPERIMENT 1a","musicreaders","trial",11,2236,1,1,"valid","valid","musicreaders"
"863",11215,5858156,"complete","EXPERIMENT 1a","musicreaders","trial",12,1641.5,1,1,"neutral","neutral","musicreaders"
"864",11227,5858156,"complete","EXPERIMENT 1a","musicreaders","trial",13,826.1,1,1,"valid","valid","musicreaders"
"865",11239,5858156,"complete","EXPERIMENT 1a","musicreaders","trial",14,3928.7,1,1,"valid","valid","musicreaders"
"866",11251,5858156,"complete","EXPERIMENT 1a","musicreaders","trial",15,1683.8,1,1,"valid","valid","musicreaders"
"867",11263,5858156,"complete","EXPERIMENT 1a","musicreaders","trial",16,2311.8,1,1,"valid","valid","musicreaders"
"868",11275,5858156,"complete","EXPERIMENT 1a","musicreaders","trial",17,2888.4,1,1,"neutral","neutral","musicreaders"
"869",11287,5858156,"complete","EXPERIMENT 1a","musicreaders","trial",18,1332.6,1,1,"valid","valid","musicreaders"
"870",11299,5858156,"complete","EXPERIMENT 1a","musicreaders","trial",19,1729.7,1,1,"valid","valid","musicreaders"
"871",11311,5858156,"complete","EXPERIMENT 1a","musicreaders","trial",20,3448.4,1,1,"neutral","neutral","musicreaders"
"872",11323,5858156,"complete","EXPERIMENT 1a","musicreaders","trial",21,1651.1,1,1,"valid","valid","musicreaders"
"873",11335,5858156,"complete","EXPERIMENT 1a","musicreaders","trial",22,3713.7,1,1,"valid","valid","musicreaders"
"874",11347,5858156,"complete","EXPERIMENT 1a","musicreaders","trial",23,2110.3,1,1,"valid","valid","musicreaders"
"875",11377,5858163,"complete","EXPERIMENT 1a","musicreaders","trial",1,4051.6,1,0,"valid","valid","musicreaders"
"876",11389,5858163,"complete","EXPERIMENT 1a","musicreaders","trial",2,2653.8,1,1,"valid","valid","musicreaders"
"877",11401,5858163,"complete","EXPERIMENT 1a","musicreaders","trial",3,1951.5,1,1,"invalid","invalid","musicreaders"
"878",11413,5858163,"complete","EXPERIMENT 1a","musicreaders","trial",4,3402.1,1,1,"valid","valid","musicreaders"
"879",11425,5858163,"complete","EXPERIMENT 1a","musicreaders","trial",5,4288.9,1,1,"valid","valid","musicreaders"
"880",11437,5858163,"complete","EXPERIMENT 1a","musicreaders","trial",6,2173.7,1,1,"invalid","invalid","musicreaders"
"881",11449,5858163,"complete","EXPERIMENT 1a","musicreaders","trial",7,2306.2,1,1,"valid","valid","musicreaders"
"882",11461,5858163,"complete","EXPERIMENT 1a","musicreaders","trial",8,1392.4,1,0,"valid","valid","musicreaders"
"883",11473,5858163,"complete","EXPERIMENT 1a","musicreaders","trial",9,3131.3,1,1,"valid","valid","musicreaders"
"884",11485,5858163,"complete","EXPERIMENT 1a","musicreaders","trial",10,5588.9,1,0,"valid","valid","musicreaders"
"885",11497,5858163,"complete","EXPERIMENT 1a","musicreaders","trial",11,3489.8,1,1,"valid","valid","musicreaders"
"886",11509,5858163,"complete","EXPERIMENT 1a","musicreaders","trial",12,2462.8,1,0,"neutral","neutral","musicreaders"
"887",11521,5858163,"complete","EXPERIMENT 1a","musicreaders","trial",13,2302.5,1,1,"invalid","invalid","musicreaders"
"888",11533,5858163,"complete","EXPERIMENT 1a","musicreaders","trial",14,1791.7,1,1,"valid","valid","musicreaders"
"889",11545,5858163,"complete","EXPERIMENT 1a","musicreaders","trial",15,2504.3,1,1,"neutral","neutral","musicreaders"
"890",11557,5858163,"complete","EXPERIMENT 1a","musicreaders","trial",16,2449.6,1,1,"valid","valid","musicreaders"
"891",11569,5858163,"complete","EXPERIMENT 1a","musicreaders","trial",17,2324.2,1,1,"neutral","neutral","musicreaders"
"892",11581,5858163,"complete","EXPERIMENT 1a","musicreaders","trial",18,1883.4,1,0,"invalid","invalid","musicreaders"
"893",11593,5858163,"complete","EXPERIMENT 1a","musicreaders","trial",19,2285.7,1,1,"neutral","neutral","musicreaders"
"894",11605,5858163,"complete","EXPERIMENT 1a","musicreaders","trial",20,3197.1,1,0,"valid","valid","musicreaders"
"895",11617,5858163,"complete","EXPERIMENT 1a","musicreaders","trial",21,2737.2,1,1,"valid","valid","musicreaders"
"896",11629,5858163,"complete","EXPERIMENT 1a","musicreaders","trial",22,1700.4,1,1,"valid","valid","musicreaders"
"897",11641,5858163,"complete","EXPERIMENT 1a","musicreaders","trial",23,2487.9,1,1,"valid","valid","musicreaders"
"898",11671,5858181,"complete","EXPERIMENT 1a","musicreaders","trial",1,5190.8,1,1,"invalid","invalid","musicreaders"
"899",11683,5858181,"complete","EXPERIMENT 1a","musicreaders","trial",2,938.3,1,1,"valid","valid","musicreaders"
"900",11695,5858181,"complete","EXPERIMENT 1a","musicreaders","trial",3,3252.6,1,1,"valid","valid","musicreaders"
"901",11707,5858181,"complete","EXPERIMENT 1a","musicreaders","trial",4,2419.1,1,1,"valid","valid","musicreaders"
"902",11719,5858181,"complete","EXPERIMENT 1a","musicreaders","trial",5,2122.3,1,1,"valid","valid","musicreaders"
"903",11731,5858181,"complete","EXPERIMENT 1a","musicreaders","trial",6,2510.1,1,1,"valid","valid","musicreaders"
"904",11743,5858181,"complete","EXPERIMENT 1a","musicreaders","trial",7,2698.2,1,1,"valid","valid","musicreaders"
"905",11755,5858181,"complete","EXPERIMENT 1a","musicreaders","trial",8,7422.2,1,1,"neutral","neutral","musicreaders"
"906",11767,5858181,"complete","EXPERIMENT 1a","musicreaders","trial",9,2125.9,1,0,"neutral","neutral","musicreaders"
"907",11779,5858181,"complete","EXPERIMENT 1a","musicreaders","trial",10,1481.5,1,1,"valid","valid","musicreaders"
"908",11791,5858181,"complete","EXPERIMENT 1a","musicreaders","trial",11,2414.6,1,1,"valid","valid","musicreaders"
"909",11803,5858181,"complete","EXPERIMENT 1a","musicreaders","trial",12,6493.7,1,0,"invalid","invalid","musicreaders"
"910",11815,5858181,"complete","EXPERIMENT 1a","musicreaders","trial",13,3226.4,1,0,"invalid","invalid","musicreaders"
