"","X","Participant.Private.ID","Task.Name","branch.53l8.x","display","Trial.Number","Reaction.Time","Attempt","Correct","valid","trial_type","music_reading_ability","branch.53l8.y","BI_01","AE_mean","PA_mean","MT_mean","SA_mean","EM_mean","GM_mean"
"1",1,5613339,"EXPERIMENT 1a","musicreaders","trial",1,4986.1,1,1,"valid","valid","musicreaders","musicreaders","bass guitar",5.666666667,6.888888889,5.428571429,5.714285714,6.166666667,5.888888889
"2",16,5613339,"EXPERIMENT1b","musicreaders","trial",1,2296.2,1,1,"neutral","neutral","musicreaders","musicreaders","bass guitar",5.666666667,6.888888889,5.428571429,5.714285714,6.166666667,5.888888889
"3",2,5613339,"EXPERIMENT 1a","musicreaders","trial",2,5488.8,1,1,"valid","valid","musicreaders","musicreaders","bass guitar",5.666666667,6.888888889,5.428571429,5.714285714,6.166666667,5.888888889
"4",17,5613339,"EXPERIMENT1b","musicreaders","trial",2,2624,1,1,"valid","valid","musicreaders","musicreaders","bass guitar",5.666666667,6.888888889,5.428571429,5.714285714,6.166666667,5.888888889
"5",6,5613339,"EXPERIMENT 1a","musicreaders","trial",3,4081.2,1,1,"invalid","invalid","musicreaders","musicreaders","bass guitar",5.666666667,6.888888889,5.428571429,5.714285714,6.166666667,5.888888889
"6",18,5613339,"EXPERIMENT1b","musicreaders","trial",3,1727.3,1,1,"valid","valid","musicreaders","musicreaders","bass guitar",5.666666667,6.888888889,5.428571429,5.714285714,6.166666667,5.888888889
"7",7,5613339,"EXPERIMENT 1a","musicreaders","trial",4,1590.4,1,1,"invalid","invalid","musicreaders","musicreaders","bass guitar",5.666666667,6.888888889,5.428571429,5.714285714,6.166666667,5.888888889
"8",19,5613339,"EXPERIMENT1b","musicreaders","trial",4,2981.5,1,1,"valid","valid","musicreaders","musicreaders","bass guitar",5.666666667,6.888888889,5.428571429,5.714285714,6.166666667,5.888888889
"9",8,5613339,"EXPERIMENT 1a","musicreaders","trial",5,1730.7,1,1,"invalid","invalid","musicreaders","musicreaders","bass guitar",5.666666667,6.888888889,5.428571429,5.714285714,6.166666667,5.888888889
"10",20,5613339,"EXPERIMENT1b","musicreaders","trial",5,3129.9,1,1,"valid","valid","musicreaders","musicreaders","bass guitar",5.666666667,6.888888889,5.428571429,5.714285714,6.166666667,5.888888889
"11",9,5613339,"EXPERIMENT 1a","musicreaders","trial",6,3148.9,1,1,"valid","valid","musicreaders","musicreaders","bass guitar",5.666666667,6.888888889,5.428571429,5.714285714,6.166666667,5.888888889
"12",21,5613339,"EXPERIMENT1b","musicreaders","trial",6,1649.6,1,1,"valid","valid","musicreaders","musicreaders","bass guitar",5.666666667,6.888888889,5.428571429,5.714285714,6.166666667,5.888888889
"13",10,5613339,"EXPERIMENT 1a","musicreaders","trial",7,2623.7,1,1,"valid","valid","musicreaders","musicreaders","bass guitar",5.666666667,6.888888889,5.428571429,5.714285714,6.166666667,5.888888889
"14",22,5613339,"EXPERIMENT1b","musicreaders","trial",7,5831.4,1,1,"invalid","invalid","musicreaders","musicreaders","bass guitar",5.666666667,6.888888889,5.428571429,5.714285714,6.166666667,5.888888889
"15",11,5613339,"EXPERIMENT 1a","musicreaders","trial",8,2586.3,1,1,"valid","valid","musicreaders","musicreaders","bass guitar",5.666666667,6.888888889,5.428571429,5.714285714,6.166666667,5.888888889
"16",23,5613339,"EXPERIMENT1b","musicreaders","trial",8,5052.1,1,1,"valid","valid","musicreaders","musicreaders","bass guitar",5.666666667,6.888888889,5.428571429,5.714285714,6.166666667,5.888888889
"17",12,5613339,"EXPERIMENT 1a","musicreaders","trial",9,1897.1,1,1,"valid","valid","musicreaders","musicreaders","bass guitar",5.666666667,6.888888889,5.428571429,5.714285714,6.166666667,5.888888889
"18",24,5613339,"EXPERIMENT1b","musicreaders","trial",9,3147.7,1,1,"valid","valid","musicreaders","musicreaders","bass guitar",5.666666667,6.888888889,5.428571429,5.714285714,6.166666667,5.888888889
"19",13,5613339,"EXPERIMENT 1a","musicreaders","trial",10,1729.1,1,1,"valid","valid","musicreaders","musicreaders","bass guitar",5.666666667,6.888888889,5.428571429,5.714285714,6.166666667,5.888888889
"20",25,5613339,"EXPERIMENT1b","musicreaders","trial",10,3825.4,1,1,"valid","valid","musicreaders","musicreaders","bass guitar",5.666666667,6.888888889,5.428571429,5.714285714,6.166666667,5.888888889
"21",14,5613339,"EXPERIMENT 1a","musicreaders","trial",11,2495.2,1,1,"valid","valid","musicreaders","musicreaders","bass guitar",5.666666667,6.888888889,5.428571429,5.714285714,6.166666667,5.888888889
"22",26,5613339,"EXPERIMENT1b","musicreaders","trial",11,2107.8,1,1,"neutral","neutral","musicreaders","musicreaders","bass guitar",5.666666667,6.888888889,5.428571429,5.714285714,6.166666667,5.888888889
"23",15,5613339,"EXPERIMENT 1a","musicreaders","trial",12,8577.6,1,1,"valid","valid","musicreaders","musicreaders","bass guitar",5.666666667,6.888888889,5.428571429,5.714285714,6.166666667,5.888888889
"24",27,5613339,"EXPERIMENT1b","musicreaders","trial",12,2202.7,1,1,"valid","valid","musicreaders","musicreaders","bass guitar",5.666666667,6.888888889,5.428571429,5.714285714,6.166666667,5.888888889
"25",3,5613339,"EXPERIMENT 1a","musicreaders","trial",13,2673.9,1,1,"valid","valid","musicreaders","musicreaders","bass guitar",5.666666667,6.888888889,5.428571429,5.714285714,6.166666667,5.888888889
"26",28,5613339,"EXPERIMENT1b","musicreaders","trial",13,2200.9,1,1,"invalid","invalid","musicreaders","musicreaders","bass guitar",5.666666667,6.888888889,5.428571429,5.714285714,6.166666667,5.888888889
"27",4,5613339,"EXPERIMENT 1a","musicreaders","trial",14,2315.8,1,1,"invalid","invalid","musicreaders","musicreaders","bass guitar",5.666666667,6.888888889,5.428571429,5.714285714,6.166666667,5.888888889
"28",29,5613339,"EXPERIMENT1b","musicreaders","trial",14,2730.2,1,1,"neutral","neutral","musicreaders","musicreaders","bass guitar",5.666666667,6.888888889,5.428571429,5.714285714,6.166666667,5.888888889
"29",5,5613339,"EXPERIMENT 1a","musicreaders","trial",15,2132.1,1,1,"valid","valid","musicreaders","musicreaders","bass guitar",5.666666667,6.888888889,5.428571429,5.714285714,6.166666667,5.888888889
"30",30,5613339,"EXPERIMENT1b","musicreaders","trial",15,2033.8,1,1,"valid","valid","musicreaders","musicreaders","bass guitar",5.666666667,6.888888889,5.428571429,5.714285714,6.166666667,5.888888889
"31",31,5613339,"EXPERIMENT1b","musicreaders","trial",16,1604,1,1,"valid","valid","musicreaders","musicreaders","bass guitar",5.666666667,6.888888889,5.428571429,5.714285714,6.166666667,5.888888889
"32",42,5613339,"EXPERIMENT 1a","musicreaders","trial",16,2510,1,1,"valid","valid","musicreaders","musicreaders","bass guitar",5.666666667,6.888888889,5.428571429,5.714285714,6.166666667,5.888888889
"33",32,5613339,"EXPERIMENT1b","musicreaders","trial",17,2868.8,1,1,"invalid","invalid","musicreaders","musicreaders","bass guitar",5.666666667,6.888888889,5.428571429,5.714285714,6.166666667,5.888888889
"34",43,5613339,"EXPERIMENT 1a","musicreaders","trial",17,2625.6,1,1,"neutral","neutral","musicreaders","musicreaders","bass guitar",5.666666667,6.888888889,5.428571429,5.714285714,6.166666667,5.888888889
"35",33,5613339,"EXPERIMENT1b","musicreaders","trial",18,3069.3,1,1,"valid","valid","musicreaders","musicreaders","bass guitar",5.666666667,6.888888889,5.428571429,5.714285714,6.166666667,5.888888889
"36",44,5613339,"EXPERIMENT 1a","musicreaders","trial",18,4464.8,1,1,"neutral","neutral","musicreaders","musicreaders","bass guitar",5.666666667,6.888888889,5.428571429,5.714285714,6.166666667,5.888888889
"37",34,5613339,"EXPERIMENT1b","musicreaders","trial",19,2622.4,1,1,"valid","valid","musicreaders","musicreaders","bass guitar",5.666666667,6.888888889,5.428571429,5.714285714,6.166666667,5.888888889
"38",41,5613339,"EXPERIMENT 1a","musicreaders","trial",19,2488,1,1,"valid","valid","musicreaders","musicreaders","bass guitar",5.666666667,6.888888889,5.428571429,5.714285714,6.166666667,5.888888889
"39",35,5613339,"EXPERIMENT1b","musicreaders","trial",20,2223.6,1,1,"valid","valid","musicreaders","musicreaders","bass guitar",5.666666667,6.888888889,5.428571429,5.714285714,6.166666667,5.888888889
"40",45,5613339,"EXPERIMENT 1a","musicreaders","trial",20,1599,1,1,"neutral","neutral","musicreaders","musicreaders","bass guitar",5.666666667,6.888888889,5.428571429,5.714285714,6.166666667,5.888888889
"41",36,5613339,"EXPERIMENT1b","musicreaders","trial",21,2440.5,1,1,"neutral","neutral","musicreaders","musicreaders","bass guitar",5.666666667,6.888888889,5.428571429,5.714285714,6.166666667,5.888888889
"42",46,5613339,"EXPERIMENT 1a","musicreaders","trial",21,1926.2,1,1,"valid","valid","musicreaders","musicreaders","bass guitar",5.666666667,6.888888889,5.428571429,5.714285714,6.166666667,5.888888889
"43",37,5613339,"EXPERIMENT1b","musicreaders","trial",22,2934.2,1,1,"invalid","invalid","musicreaders","musicreaders","bass guitar",5.666666667,6.888888889,5.428571429,5.714285714,6.166666667,5.888888889
"44",39,5613339,"EXPERIMENT 1a","musicreaders","trial",22,1449.8,1,1,"neutral","neutral","musicreaders","musicreaders","bass guitar",5.666666667,6.888888889,5.428571429,5.714285714,6.166666667,5.888888889
"45",38,5613339,"EXPERIMENT1b","musicreaders","trial",23,1775.6,1,1,"valid","valid","musicreaders","musicreaders","bass guitar",5.666666667,6.888888889,5.428571429,5.714285714,6.166666667,5.888888889
"46",40,5613339,"EXPERIMENT 1a","musicreaders","trial",23,1409.8,1,1,"valid","valid","musicreaders","musicreaders","bass guitar",5.666666667,6.888888889,5.428571429,5.714285714,6.166666667,5.888888889
"47",52,5627762,"EXPERIMENT1b","musicreaders","trial",1,2690.1,1,0,"neutral","neutral","musicreaders","musicreaders","Drums",5,6.333333333,5,3.428571429,4.833333333,4.722222222
"48",54,5627762,"EXPERIMENT 1a","musicreaders","trial",1,8838.9,1,1,"valid","valid","musicreaders","musicreaders","Drums",5,6.333333333,5,3.428571429,4.833333333,4.722222222
"49",53,5627762,"EXPERIMENT1b","musicreaders","trial",2,3257.9,1,1,"valid","valid","musicreaders","musicreaders","Drums",5,6.333333333,5,3.428571429,4.833333333,4.722222222
"50",55,5627762,"EXPERIMENT 1a","musicreaders","trial",2,1441.6,1,0,"valid","valid","musicreaders","musicreaders","Drums",5,6.333333333,5,3.428571429,4.833333333,4.722222222
"51",47,5627762,"EXPERIMENT1b","musicreaders","trial",3,3508.2,1,0,"valid","valid","musicreaders","musicreaders","Drums",5,6.333333333,5,3.428571429,4.833333333,4.722222222
"52",56,5627762,"EXPERIMENT 1a","musicreaders","trial",3,2406.8,1,1,"invalid","invalid","musicreaders","musicreaders","Drums",5,6.333333333,5,3.428571429,4.833333333,4.722222222
"53",50,5627762,"EXPERIMENT1b","musicreaders","trial",4,1842.3,1,1,"neutral","neutral","musicreaders","musicreaders","Drums",5,6.333333333,5,3.428571429,4.833333333,4.722222222
"54",57,5627762,"EXPERIMENT 1a","musicreaders","trial",4,2659.3,1,1,"valid","valid","musicreaders","musicreaders","Drums",5,6.333333333,5,3.428571429,4.833333333,4.722222222
"55",51,5627762,"EXPERIMENT1b","musicreaders","trial",5,4612.1,1,1,"neutral","neutral","musicreaders","musicreaders","Drums",5,6.333333333,5,3.428571429,4.833333333,4.722222222
"56",58,5627762,"EXPERIMENT 1a","musicreaders","trial",5,1340.5,1,1,"valid","valid","musicreaders","musicreaders","Drums",5,6.333333333,5,3.428571429,4.833333333,4.722222222
"57",48,5627762,"EXPERIMENT1b","musicreaders","trial",6,2474.6,1,0,"valid","valid","musicreaders","musicreaders","Drums",5,6.333333333,5,3.428571429,4.833333333,4.722222222
"58",59,5627762,"EXPERIMENT 1a","musicreaders","trial",6,7695.6,1,0,"valid","valid","musicreaders","musicreaders","Drums",5,6.333333333,5,3.428571429,4.833333333,4.722222222
"59",49,5627762,"EXPERIMENT1b","musicreaders","trial",7,27325.4,1,1,"valid","valid","musicreaders","musicreaders","Drums",5,6.333333333,5,3.428571429,4.833333333,4.722222222
"60",60,5627762,"EXPERIMENT 1a","musicreaders","trial",7,3142.2,1,0,"valid","valid","musicreaders","musicreaders","Drums",5,6.333333333,5,3.428571429,4.833333333,4.722222222
"61",61,5627762,"EXPERIMENT 1a","musicreaders","trial",8,1261.7,1,0,"neutral","neutral","musicreaders","musicreaders","Drums",5,6.333333333,5,3.428571429,4.833333333,4.722222222
"62",86,5627762,"EXPERIMENT1b","musicreaders","trial",8,2259.7,1,0,"valid","valid","musicreaders","musicreaders","Drums",5,6.333333333,5,3.428571429,4.833333333,4.722222222
"63",62,5627762,"EXPERIMENT 1a","musicreaders","trial",9,3557.6,1,0,"neutral","neutral","musicreaders","musicreaders","Drums",5,6.333333333,5,3.428571429,4.833333333,4.722222222
"64",87,5627762,"EXPERIMENT1b","musicreaders","trial",9,5116.3,1,1,"valid","valid","musicreaders","musicreaders","Drums",5,6.333333333,5,3.428571429,4.833333333,4.722222222
"65",63,5627762,"EXPERIMENT 1a","musicreaders","trial",10,4709.7,1,0,"valid","valid","musicreaders","musicreaders","Drums",5,6.333333333,5,3.428571429,4.833333333,4.722222222
"66",88,5627762,"EXPERIMENT1b","musicreaders","trial",10,50225,1,0,"valid","valid","musicreaders","musicreaders","Drums",5,6.333333333,5,3.428571429,4.833333333,4.722222222
"67",64,5627762,"EXPERIMENT 1a","musicreaders","trial",11,2139.5,1,1,"valid","valid","musicreaders","musicreaders","Drums",5,6.333333333,5,3.428571429,4.833333333,4.722222222
"68",89,5627762,"EXPERIMENT1b","musicreaders","trial",11,2041.9,1,1,"invalid","invalid","musicreaders","musicreaders","Drums",5,6.333333333,5,3.428571429,4.833333333,4.722222222
"69",65,5627762,"EXPERIMENT 1a","musicreaders","trial",12,2525.8,1,1,"invalid","invalid","musicreaders","musicreaders","Drums",5,6.333333333,5,3.428571429,4.833333333,4.722222222
"70",77,5627762,"EXPERIMENT1b","musicreaders","trial",12,3694.6,1,0,"valid","valid","musicreaders","musicreaders","Drums",5,6.333333333,5,3.428571429,4.833333333,4.722222222
"71",66,5627762,"EXPERIMENT 1a","musicreaders","trial",13,1142.9,1,1,"neutral","neutral","musicreaders","musicreaders","Drums",5,6.333333333,5,3.428571429,4.833333333,4.722222222
"72",78,5627762,"EXPERIMENT1b","musicreaders","trial",13,1776.8,1,1,"valid","valid","musicreaders","musicreaders","Drums",5,6.333333333,5,3.428571429,4.833333333,4.722222222
"73",67,5627762,"EXPERIMENT 1a","musicreaders","trial",14,3275.9,1,1,"valid","valid","musicreaders","musicreaders","Drums",5,6.333333333,5,3.428571429,4.833333333,4.722222222
"74",79,5627762,"EXPERIMENT1b","musicreaders","trial",14,2141.7,1,0,"valid","valid","musicreaders","musicreaders","Drums",5,6.333333333,5,3.428571429,4.833333333,4.722222222
"75",68,5627762,"EXPERIMENT 1a","musicreaders","trial",15,3775.1,1,1,"valid","valid","musicreaders","musicreaders","Drums",5,6.333333333,5,3.428571429,4.833333333,4.722222222
"76",80,5627762,"EXPERIMENT1b","musicreaders","trial",15,3176.4,1,1,"valid","valid","musicreaders","musicreaders","Drums",5,6.333333333,5,3.428571429,4.833333333,4.722222222
"77",69,5627762,"EXPERIMENT 1a","musicreaders","trial",16,3790.5,1,0,"valid","valid","musicreaders","musicreaders","Drums",5,6.333333333,5,3.428571429,4.833333333,4.722222222
"78",81,5627762,"EXPERIMENT1b","musicreaders","trial",16,4026.5,1,1,"invalid","invalid","musicreaders","musicreaders","Drums",5,6.333333333,5,3.428571429,4.833333333,4.722222222
"79",70,5627762,"EXPERIMENT 1a","musicreaders","trial",17,2725.4,1,1,"valid","valid","musicreaders","musicreaders","Drums",5,6.333333333,5,3.428571429,4.833333333,4.722222222
"80",82,5627762,"EXPERIMENT1b","musicreaders","trial",17,1691.8,1,1,"invalid","invalid","musicreaders","musicreaders","Drums",5,6.333333333,5,3.428571429,4.833333333,4.722222222
"81",71,5627762,"EXPERIMENT 1a","musicreaders","trial",18,3075.6,1,1,"valid","valid","musicreaders","musicreaders","Drums",5,6.333333333,5,3.428571429,4.833333333,4.722222222
"82",83,5627762,"EXPERIMENT1b","musicreaders","trial",18,4391.6,1,0,"valid","valid","musicreaders","musicreaders","Drums",5,6.333333333,5,3.428571429,4.833333333,4.722222222
"83",72,5627762,"EXPERIMENT 1a","musicreaders","trial",19,4224.3,1,1,"neutral","neutral","musicreaders","musicreaders","Drums",5,6.333333333,5,3.428571429,4.833333333,4.722222222
"84",84,5627762,"EXPERIMENT1b","musicreaders","trial",19,1844.2,1,1,"valid","valid","musicreaders","musicreaders","Drums",5,6.333333333,5,3.428571429,4.833333333,4.722222222
"85",73,5627762,"EXPERIMENT 1a","musicreaders","trial",20,1691.4,1,1,"invalid","invalid","musicreaders","musicreaders","Drums",5,6.333333333,5,3.428571429,4.833333333,4.722222222
"86",85,5627762,"EXPERIMENT1b","musicreaders","trial",20,1362.2,1,0,"neutral","neutral","musicreaders","musicreaders","Drums",5,6.333333333,5,3.428571429,4.833333333,4.722222222
"87",74,5627762,"EXPERIMENT 1a","musicreaders","trial",21,3426.1,1,1,"invalid","invalid","musicreaders","musicreaders","Drums",5,6.333333333,5,3.428571429,4.833333333,4.722222222
"88",90,5627762,"EXPERIMENT1b","musicreaders","trial",21,31011.3,1,0,"valid","valid","musicreaders","musicreaders","Drums",5,6.333333333,5,3.428571429,4.833333333,4.722222222
"89",75,5627762,"EXPERIMENT 1a","musicreaders","trial",22,4559.9,1,0,"valid","valid","musicreaders","musicreaders","Drums",5,6.333333333,5,3.428571429,4.833333333,4.722222222
"90",91,5627762,"EXPERIMENT1b","musicreaders","trial",22,4292.8,1,1,"invalid","invalid","musicreaders","musicreaders","Drums",5,6.333333333,5,3.428571429,4.833333333,4.722222222
"91",76,5627762,"EXPERIMENT 1a","musicreaders","trial",23,3276.4,1,1,"valid","valid","musicreaders","musicreaders","Drums",5,6.333333333,5,3.428571429,4.833333333,4.722222222
"92",92,5627762,"EXPERIMENT1b","musicreaders","trial",23,1992.6,1,0,"valid","valid","musicreaders","musicreaders","Drums",5,6.333333333,5,3.428571429,4.833333333,4.722222222
"93",106,5628433,"block c","nonreaders","trial",1,4684.6,1,0,"valid","valid","nonreaders","nonreaders","",2.777777778,3.555555556,1,1.285714286,4.5,1.555555556
"94",133,5628433,"block b","nonreaders","trial",1,2924.2,1,1,"valid","valid","nonreaders","nonreaders","",2.777777778,3.555555556,1,1.285714286,4.5,1.555555556
"95",98,5628433,"block c","nonreaders","trial",2,3023.6,1,1,"valid","valid","nonreaders","nonreaders","",2.777777778,3.555555556,1,1.285714286,4.5,1.555555556
"96",134,5628433,"block b","nonreaders","trial",2,3427.2,1,1,"valid","valid","nonreaders","nonreaders","",2.777777778,3.555555556,1,1.285714286,4.5,1.555555556
"97",94,5628433,"block c","nonreaders","trial",3,2294.3,1,1,"neutral","neutral","nonreaders","nonreaders","",2.777777778,3.555555556,1,1.285714286,4.5,1.555555556
"98",131,5628433,"block b","nonreaders","trial",3,4343.7,1,1,"valid","valid","nonreaders","nonreaders","",2.777777778,3.555555556,1,1.285714286,4.5,1.555555556
"99",96,5628433,"block c","nonreaders","trial",4,3006.9,1,1,"valid","valid","nonreaders","nonreaders","",2.777777778,3.555555556,1,1.285714286,4.5,1.555555556
"100",132,5628433,"block b","nonreaders","trial",4,2162.3,1,0,"valid","valid","nonreaders","nonreaders","",2.777777778,3.555555556,1,1.285714286,4.5,1.555555556
"101",97,5628433,"block c","nonreaders","trial",5,2759.7,1,0,"valid","valid","nonreaders","nonreaders","",2.777777778,3.555555556,1,1.285714286,4.5,1.555555556
"102",138,5628433,"block b","nonreaders","trial",5,2308.5,1,1,"valid","valid","nonreaders","nonreaders","",2.777777778,3.555555556,1,1.285714286,4.5,1.555555556
"103",95,5628433,"block c","nonreaders","trial",6,3455.4,1,0,"neutral","neutral","nonreaders","nonreaders","",2.777777778,3.555555556,1,1.285714286,4.5,1.555555556
"104",135,5628433,"block b","nonreaders","trial",6,3070.2,1,0,"invalid","invalid","nonreaders","nonreaders","",2.777777778,3.555555556,1,1.285714286,4.5,1.555555556
"105",93,5628433,"block c","nonreaders","trial",7,2615.9,1,1,"valid","valid","nonreaders","nonreaders","",2.777777778,3.555555556,1,1.285714286,4.5,1.555555556
"106",129,5628433,"block b","nonreaders","trial",7,3815.1,1,1,"invalid","invalid","nonreaders","nonreaders","",2.777777778,3.555555556,1,1.285714286,4.5,1.555555556
"107",111,5628433,"block c","nonreaders","trial",8,6392.8,1,1,"valid","valid","nonreaders","nonreaders","",2.777777778,3.555555556,1,1.285714286,4.5,1.555555556
"108",115,5628433,"block b","nonreaders","trial",8,3618.7,1,1,"invalid","invalid","nonreaders","nonreaders","",2.777777778,3.555555556,1,1.285714286,4.5,1.555555556
"109",103,5628433,"block b","nonreaders","trial",9,1317.4,1,0,"valid","valid","nonreaders","nonreaders","",2.777777778,3.555555556,1,1.285714286,4.5,1.555555556
"110",112,5628433,"block c","nonreaders","trial",9,3775.5,1,1,"valid","valid","nonreaders","nonreaders","",2.777777778,3.555555556,1,1.285714286,4.5,1.555555556
"111",104,5628433,"block b","nonreaders","trial",10,3202.3,1,0,"valid","valid","nonreaders","nonreaders","",2.777777778,3.555555556,1,1.285714286,4.5,1.555555556
"112",136,5628433,"block c","nonreaders","trial",10,3329.4,1,1,"invalid","invalid","nonreaders","nonreaders","",2.777777778,3.555555556,1,1.285714286,4.5,1.555555556
"113",105,5628433,"block b","nonreaders","trial",11,2524.3,1,0,"neutral","neutral","nonreaders","nonreaders","",2.777777778,3.555555556,1,1.285714286,4.5,1.555555556
"114",137,5628433,"block c","nonreaders","trial",11,1952.4,1,0,"valid","valid","nonreaders","nonreaders","",2.777777778,3.555555556,1,1.285714286,4.5,1.555555556
"115",110,5628433,"block b","nonreaders","trial",12,2733.7,1,1,"valid","valid","nonreaders","nonreaders","",2.777777778,3.555555556,1,1.285714286,4.5,1.555555556
"116",130,5628433,"block c","nonreaders","trial",12,2495.9,1,1,"valid","valid","nonreaders","nonreaders","",2.777777778,3.555555556,1,1.285714286,4.5,1.555555556
"117",107,5628433,"block b","nonreaders","trial",13,4284.3,1,1,"invalid","invalid","nonreaders","nonreaders","",2.777777778,3.555555556,1,1.285714286,4.5,1.555555556
"118",118,5628433,"block c","nonreaders","trial",13,3120.7,1,0,"invalid","invalid","nonreaders","nonreaders","",2.777777778,3.555555556,1,1.285714286,4.5,1.555555556
"119",108,5628433,"block b","nonreaders","trial",14,2203.8,1,1,"neutral","neutral","nonreaders","nonreaders","",2.777777778,3.555555556,1,1.285714286,4.5,1.555555556
"120",119,5628433,"block c","nonreaders","trial",14,2823.3,1,1,"valid","valid","nonreaders","nonreaders","",2.777777778,3.555555556,1,1.285714286,4.5,1.555555556
"121",100,5628433,"block b","nonreaders","trial",15,2930.7,1,0,"valid","valid","nonreaders","nonreaders","",2.777777778,3.555555556,1,1.285714286,4.5,1.555555556
"122",120,5628433,"block c","nonreaders","trial",15,1476.5,1,0,"invalid","invalid","nonreaders","nonreaders","",2.777777778,3.555555556,1,1.285714286,4.5,1.555555556
"123",101,5628433,"block b","nonreaders","trial",16,3062,1,1,"valid","valid","nonreaders","nonreaders","",2.777777778,3.555555556,1,1.285714286,4.5,1.555555556
"124",121,5628433,"block c","nonreaders","trial",16,1808.9,1,1,"neutral","neutral","nonreaders","nonreaders","",2.777777778,3.555555556,1,1.285714286,4.5,1.555555556
"125",102,5628433,"block b","nonreaders","trial",17,2636.8,1,1,"valid","valid","nonreaders","nonreaders","",2.777777778,3.555555556,1,1.285714286,4.5,1.555555556
"126",122,5628433,"block c","nonreaders","trial",17,1759.1,1,1,"neutral","neutral","nonreaders","nonreaders","",2.777777778,3.555555556,1,1.285714286,4.5,1.555555556
"127",99,5628433,"block b","nonreaders","trial",18,2360.1,1,0,"valid","valid","nonreaders","nonreaders","",2.777777778,3.555555556,1,1.285714286,4.5,1.555555556
"128",123,5628433,"block c","nonreaders","trial",18,1779,1,1,"valid","valid","nonreaders","nonreaders","",2.777777778,3.555555556,1,1.285714286,4.5,1.555555556
"129",109,5628433,"block c","nonreaders","trial",19,3134.6,1,0,"invalid","invalid","nonreaders","nonreaders","",2.777777778,3.555555556,1,1.285714286,4.5,1.555555556
"130",113,5628433,"block b","nonreaders","trial",19,2689.1,1,1,"valid","valid","nonreaders","nonreaders","",2.777777778,3.555555556,1,1.285714286,4.5,1.555555556
"131",114,5628433,"block c","nonreaders","trial",20,2769.2,1,1,"valid","valid","nonreaders","nonreaders","",2.777777778,3.555555556,1,1.285714286,4.5,1.555555556
"132",127,5628433,"block b","nonreaders","trial",20,1645.8,1,0,"neutral","neutral","nonreaders","nonreaders","",2.777777778,3.555555556,1,1.285714286,4.5,1.555555556
"133",124,5628433,"block c","nonreaders","trial",21,1697.3,1,1,"valid","valid","nonreaders","nonreaders","",2.777777778,3.555555556,1,1.285714286,4.5,1.555555556
"134",128,5628433,"block b","nonreaders","trial",21,2918,1,0,"valid","valid","nonreaders","nonreaders","",2.777777778,3.555555556,1,1.285714286,4.5,1.555555556
"135",116,5628433,"block b","nonreaders","trial",22,1875.8,1,1,"valid","valid","nonreaders","nonreaders","",2.777777778,3.555555556,1,1.285714286,4.5,1.555555556
"136",125,5628433,"block c","nonreaders","trial",22,1489.5,1,1,"valid","valid","nonreaders","nonreaders","",2.777777778,3.555555556,1,1.285714286,4.5,1.555555556
"137",117,5628433,"block b","nonreaders","trial",23,2068.1,1,0,"neutral","neutral","nonreaders","nonreaders","",2.777777778,3.555555556,1,1.285714286,4.5,1.555555556
"138",126,5628433,"block c","nonreaders","trial",23,2167.9,1,1,"valid","valid","nonreaders","nonreaders","",2.777777778,3.555555556,1,1.285714286,4.5,1.555555556
"139",139,5628783,"block a","musicreaders","trial",1,4478,1,1,"invalid","invalid","musicreaders","musicreaders","piano",3.444444444,4.111111111,1.857142857,3.571428571,6.5,3.166666667
"140",165,5628783,"block b","musicreaders","trial",1,3704,1,1,"valid","valid","musicreaders","musicreaders","piano",3.444444444,4.111111111,1.857142857,3.571428571,6.5,3.166666667
"141",140,5628783,"block a","musicreaders","trial",2,1977,1,0,"valid","valid","musicreaders","musicreaders","piano",3.444444444,4.111111111,1.857142857,3.571428571,6.5,3.166666667
"142",166,5628783,"block b","musicreaders","trial",2,1900,1,0,"neutral","neutral","musicreaders","musicreaders","piano",3.444444444,4.111111111,1.857142857,3.571428571,6.5,3.166666667
"143",141,5628783,"block a","musicreaders","trial",3,1851,1,0,"valid","valid","musicreaders","musicreaders","piano",3.444444444,4.111111111,1.857142857,3.571428571,6.5,3.166666667
"144",167,5628783,"block b","musicreaders","trial",3,2284,1,0,"invalid","invalid","musicreaders","musicreaders","piano",3.444444444,4.111111111,1.857142857,3.571428571,6.5,3.166666667
"145",142,5628783,"block a","musicreaders","trial",4,1494,1,0,"invalid","invalid","musicreaders","musicreaders","piano",3.444444444,4.111111111,1.857142857,3.571428571,6.5,3.166666667
"146",168,5628783,"block b","musicreaders","trial",4,1259,1,0,"invalid","invalid","musicreaders","musicreaders","piano",3.444444444,4.111111111,1.857142857,3.571428571,6.5,3.166666667
"147",143,5628783,"block a","musicreaders","trial",5,5034,1,0,"neutral","neutral","musicreaders","musicreaders","piano",3.444444444,4.111111111,1.857142857,3.571428571,6.5,3.166666667
"148",169,5628783,"block b","musicreaders","trial",5,3628,1,0,"valid","valid","musicreaders","musicreaders","piano",3.444444444,4.111111111,1.857142857,3.571428571,6.5,3.166666667
"149",144,5628783,"block a","musicreaders","trial",6,1074,1,1,"valid","valid","musicreaders","musicreaders","piano",3.444444444,4.111111111,1.857142857,3.571428571,6.5,3.166666667
"150",170,5628783,"block b","musicreaders","trial",6,1206,1,1,"valid","valid","musicreaders","musicreaders","piano",3.444444444,4.111111111,1.857142857,3.571428571,6.5,3.166666667
"151",145,5628783,"block a","musicreaders","trial",7,2331,1,1,"valid","valid","musicreaders","musicreaders","piano",3.444444444,4.111111111,1.857142857,3.571428571,6.5,3.166666667
"152",171,5628783,"block b","musicreaders","trial",7,1048,1,0,"valid","valid","musicreaders","musicreaders","piano",3.444444444,4.111111111,1.857142857,3.571428571,6.5,3.166666667
"153",146,5628783,"block a","musicreaders","trial",8,2590,1,0,"neutral","neutral","musicreaders","musicreaders","piano",3.444444444,4.111111111,1.857142857,3.571428571,6.5,3.166666667
"154",172,5628783,"block b","musicreaders","trial",8,1681,1,1,"valid","valid","musicreaders","musicreaders","piano",3.444444444,4.111111111,1.857142857,3.571428571,6.5,3.166666667
"155",147,5628783,"block a","musicreaders","trial",9,1758,1,0,"neutral","neutral","musicreaders","musicreaders","piano",3.444444444,4.111111111,1.857142857,3.571428571,6.5,3.166666667
"156",173,5628783,"block b","musicreaders","trial",9,1614,1,1,"neutral","neutral","musicreaders","musicreaders","piano",3.444444444,4.111111111,1.857142857,3.571428571,6.5,3.166666667
"157",148,5628783,"block a","musicreaders","trial",10,13399,1,0,"invalid","invalid","musicreaders","musicreaders","piano",3.444444444,4.111111111,1.857142857,3.571428571,6.5,3.166666667
"158",174,5628783,"block b","musicreaders","trial",10,4289,1,0,"valid","valid","musicreaders","musicreaders","piano",3.444444444,4.111111111,1.857142857,3.571428571,6.5,3.166666667
"159",149,5628783,"block a","musicreaders","trial",11,2723,1,0,"invalid","invalid","musicreaders","musicreaders","piano",3.444444444,4.111111111,1.857142857,3.571428571,6.5,3.166666667
"160",162,5628783,"block b","musicreaders","trial",11,1681,1,1,"valid","valid","musicreaders","musicreaders","piano",3.444444444,4.111111111,1.857142857,3.571428571,6.5,3.166666667
"161",150,5628783,"block a","musicreaders","trial",12,6654,1,1,"valid","valid","musicreaders","musicreaders","piano",3.444444444,4.111111111,1.857142857,3.571428571,6.5,3.166666667
"162",163,5628783,"block b","musicreaders","trial",12,2709,1,0,"neutral","neutral","musicreaders","musicreaders","piano",3.444444444,4.111111111,1.857142857,3.571428571,6.5,3.166666667
"163",151,5628783,"block a","musicreaders","trial",13,5465,1,1,"valid","valid","musicreaders","musicreaders","piano",3.444444444,4.111111111,1.857142857,3.571428571,6.5,3.166666667
"164",164,5628783,"block b","musicreaders","trial",13,2056,1,0,"valid","valid","musicreaders","musicreaders","piano",3.444444444,4.111111111,1.857142857,3.571428571,6.5,3.166666667
"165",152,5628783,"block a","musicreaders","trial",14,2070,1,0,"valid","valid","musicreaders","musicreaders","piano",3.444444444,4.111111111,1.857142857,3.571428571,6.5,3.166666667
"166",178,5628783,"block b","musicreaders","trial",14,2675,1,1,"valid","valid","musicreaders","musicreaders","piano",3.444444444,4.111111111,1.857142857,3.571428571,6.5,3.166666667
"167",153,5628783,"block a","musicreaders","trial",15,3215,1,0,"neutral","neutral","musicreaders","musicreaders","piano",3.444444444,4.111111111,1.857142857,3.571428571,6.5,3.166666667
"168",175,5628783,"block b","musicreaders","trial",15,1130,1,0,"invalid","invalid","musicreaders","musicreaders","piano",3.444444444,4.111111111,1.857142857,3.571428571,6.5,3.166666667
"169",154,5628783,"block a","musicreaders","trial",16,3468,1,1,"valid","valid","musicreaders","musicreaders","piano",3.444444444,4.111111111,1.857142857,3.571428571,6.5,3.166666667
"170",176,5628783,"block b","musicreaders","trial",16,2423,1,1,"invalid","invalid","musicreaders","musicreaders","piano",3.444444444,4.111111111,1.857142857,3.571428571,6.5,3.166666667
"171",155,5628783,"block a","musicreaders","trial",17,2399,1,1,"valid","valid","musicreaders","musicreaders","piano",3.444444444,4.111111111,1.857142857,3.571428571,6.5,3.166666667
"172",177,5628783,"block b","musicreaders","trial",17,3040,1,0,"valid","valid","musicreaders","musicreaders","piano",3.444444444,4.111111111,1.857142857,3.571428571,6.5,3.166666667
"173",156,5628783,"block a","musicreaders","trial",18,3861,1,1,"valid","valid","musicreaders","musicreaders","piano",3.444444444,4.111111111,1.857142857,3.571428571,6.5,3.166666667
"174",182,5628783,"block b","musicreaders","trial",18,1663,1,1,"valid","valid","musicreaders","musicreaders","piano",3.444444444,4.111111111,1.857142857,3.571428571,6.5,3.166666667
"175",157,5628783,"block a","musicreaders","trial",19,1424,1,1,"valid","valid","musicreaders","musicreaders","piano",3.444444444,4.111111111,1.857142857,3.571428571,6.5,3.166666667
"176",179,5628783,"block b","musicreaders","trial",19,1190,1,1,"valid","valid","musicreaders","musicreaders","piano",3.444444444,4.111111111,1.857142857,3.571428571,6.5,3.166666667
"177",158,5628783,"block a","musicreaders","trial",20,2844,1,1,"valid","valid","musicreaders","musicreaders","piano",3.444444444,4.111111111,1.857142857,3.571428571,6.5,3.166666667
"178",180,5628783,"block b","musicreaders","trial",20,1581,1,1,"valid","valid","musicreaders","musicreaders","piano",3.444444444,4.111111111,1.857142857,3.571428571,6.5,3.166666667
"179",159,5628783,"block a","musicreaders","trial",21,2656,1,0,"valid","valid","musicreaders","musicreaders","piano",3.444444444,4.111111111,1.857142857,3.571428571,6.5,3.166666667
"180",181,5628783,"block b","musicreaders","trial",21,2427,1,1,"neutral","neutral","musicreaders","musicreaders","piano",3.444444444,4.111111111,1.857142857,3.571428571,6.5,3.166666667
"181",160,5628783,"block a","musicreaders","trial",22,2868,1,1,"valid","valid","musicreaders","musicreaders","piano",3.444444444,4.111111111,1.857142857,3.571428571,6.5,3.166666667
"182",184,5628783,"block b","musicreaders","trial",22,2486,1,1,"valid","valid","musicreaders","musicreaders","piano",3.444444444,4.111111111,1.857142857,3.571428571,6.5,3.166666667
"183",161,5628783,"block a","musicreaders","trial",23,3622,1,1,"valid","valid","musicreaders","musicreaders","piano",3.444444444,4.111111111,1.857142857,3.571428571,6.5,3.166666667
"184",183,5628783,"block b","musicreaders","trial",23,2132,1,1,"valid","valid","musicreaders","musicreaders","piano",3.444444444,4.111111111,1.857142857,3.571428571,6.5,3.166666667
"185",187,5629186,"block a","musicreaders","trial",1,1381,1,1,"valid","valid","musicreaders","musicreaders","Piano",3.444444444,5.777777778,3.428571429,4.428571429,6.666666667,3.777777778
"186",188,5629186,"block b","musicreaders","trial",1,2677.9,1,1,"valid","valid","musicreaders","musicreaders","Piano",3.444444444,5.777777778,3.428571429,4.428571429,6.666666667,3.777777778
"187",185,5629186,"block a","musicreaders","trial",2,2478.7,1,1,"invalid","invalid","musicreaders","musicreaders","Piano",3.444444444,5.777777778,3.428571429,4.428571429,6.666666667,3.777777778
"188",189,5629186,"block b","musicreaders","trial",2,1987.1,1,1,"valid","valid","musicreaders","musicreaders","Piano",3.444444444,5.777777778,3.428571429,4.428571429,6.666666667,3.777777778
"189",186,5629186,"block a","musicreaders","trial",3,12815.9,1,1,"valid","valid","musicreaders","musicreaders","Piano",3.444444444,5.777777778,3.428571429,4.428571429,6.666666667,3.777777778
"190",190,5629186,"block b","musicreaders","trial",3,2596.3,1,0,"valid","valid","musicreaders","musicreaders","Piano",3.444444444,5.777777778,3.428571429,4.428571429,6.666666667,3.777777778
"191",191,5629186,"block b","musicreaders","trial",4,3380.8,1,0,"neutral","neutral","musicreaders","musicreaders","Piano",3.444444444,5.777777778,3.428571429,4.428571429,6.666666667,3.777777778
"192",205,5629186,"block a","musicreaders","trial",4,2558.6,1,1,"invalid","invalid","musicreaders","musicreaders","Piano",3.444444444,5.777777778,3.428571429,4.428571429,6.666666667,3.777777778
"193",192,5629186,"block b","musicreaders","trial",5,2046.1,1,1,"valid","valid","musicreaders","musicreaders","Piano",3.444444444,5.777777778,3.428571429,4.428571429,6.666666667,3.777777778
"194",206,5629186,"block a","musicreaders","trial",5,1650.1,1,1,"valid","valid","musicreaders","musicreaders","Piano",3.444444444,5.777777778,3.428571429,4.428571429,6.666666667,3.777777778
"195",193,5629186,"block b","musicreaders","trial",6,1863.8,1,0,"invalid","invalid","musicreaders","musicreaders","Piano",3.444444444,5.777777778,3.428571429,4.428571429,6.666666667,3.777777778
"196",207,5629186,"block a","musicreaders","trial",6,5059.6,1,1,"valid","valid","musicreaders","musicreaders","Piano",3.444444444,5.777777778,3.428571429,4.428571429,6.666666667,3.777777778
"197",194,5629186,"block b","musicreaders","trial",7,4471.9,1,1,"invalid","invalid","musicreaders","musicreaders","Piano",3.444444444,5.777777778,3.428571429,4.428571429,6.666666667,3.777777778
"198",208,5629186,"block a","musicreaders","trial",7,2349.9,1,1,"valid","valid","musicreaders","musicreaders","Piano",3.444444444,5.777777778,3.428571429,4.428571429,6.666666667,3.777777778
"199",195,5629186,"block b","musicreaders","trial",8,2527.9,1,1,"valid","valid","musicreaders","musicreaders","Piano",3.444444444,5.777777778,3.428571429,4.428571429,6.666666667,3.777777778
"200",209,5629186,"block a","musicreaders","trial",8,2478,1,1,"valid","valid","musicreaders","musicreaders","Piano",3.444444444,5.777777778,3.428571429,4.428571429,6.666666667,3.777777778
"201",196,5629186,"block b","musicreaders","trial",9,1866,1,0,"valid","valid","musicreaders","musicreaders","Piano",3.444444444,5.777777778,3.428571429,4.428571429,6.666666667,3.777777778
"202",210,5629186,"block a","musicreaders","trial",9,4049.7,1,0,"neutral","neutral","musicreaders","musicreaders","Piano",3.444444444,5.777777778,3.428571429,4.428571429,6.666666667,3.777777778
"203",197,5629186,"block b","musicreaders","trial",10,2729.2,1,0,"valid","valid","musicreaders","musicreaders","Piano",3.444444444,5.777777778,3.428571429,4.428571429,6.666666667,3.777777778
"204",211,5629186,"block a","musicreaders","trial",10,2687.8,1,1,"neutral","neutral","musicreaders","musicreaders","Piano",3.444444444,5.777777778,3.428571429,4.428571429,6.666666667,3.777777778
"205",198,5629186,"block b","musicreaders","trial",11,3119.4,1,1,"valid","valid","musicreaders","musicreaders","Piano",3.444444444,5.777777778,3.428571429,4.428571429,6.666666667,3.777777778
"206",212,5629186,"block a","musicreaders","trial",11,2115.4,1,1,"valid","valid","musicreaders","musicreaders","Piano",3.444444444,5.777777778,3.428571429,4.428571429,6.666666667,3.777777778
"207",199,5629186,"block b","musicreaders","trial",12,3299.1,1,1,"valid","valid","musicreaders","musicreaders","Piano",3.444444444,5.777777778,3.428571429,4.428571429,6.666666667,3.777777778
"208",213,5629186,"block a","musicreaders","trial",12,2704.3,1,0,"neutral","neutral","musicreaders","musicreaders","Piano",3.444444444,5.777777778,3.428571429,4.428571429,6.666666667,3.777777778
"209",200,5629186,"block b","musicreaders","trial",13,2946.6,1,0,"neutral","neutral","musicreaders","musicreaders","Piano",3.444444444,5.777777778,3.428571429,4.428571429,6.666666667,3.777777778
"210",214,5629186,"block a","musicreaders","trial",13,6807.3,1,1,"valid","valid","musicreaders","musicreaders","Piano",3.444444444,5.777777778,3.428571429,4.428571429,6.666666667,3.777777778
"211",201,5629186,"block b","musicreaders","trial",14,3544.6,1,1,"valid","valid","musicreaders","musicreaders","Piano",3.444444444,5.777777778,3.428571429,4.428571429,6.666666667,3.777777778
"212",215,5629186,"block a","musicreaders","trial",14,1696.1,1,1,"valid","valid","musicreaders","musicreaders","Piano",3.444444444,5.777777778,3.428571429,4.428571429,6.666666667,3.777777778
"213",202,5629186,"block b","musicreaders","trial",15,2579.5,1,1,"neutral","neutral","musicreaders","musicreaders","Piano",3.444444444,5.777777778,3.428571429,4.428571429,6.666666667,3.777777778
"214",216,5629186,"block a","musicreaders","trial",15,1470.5,1,1,"valid","valid","musicreaders","musicreaders","Piano",3.444444444,5.777777778,3.428571429,4.428571429,6.666666667,3.777777778
"215",203,5629186,"block b","musicreaders","trial",16,2751.7,1,1,"valid","valid","musicreaders","musicreaders","Piano",3.444444444,5.777777778,3.428571429,4.428571429,6.666666667,3.777777778
"216",217,5629186,"block a","musicreaders","trial",16,2524.5,1,0,"invalid","invalid","musicreaders","musicreaders","Piano",3.444444444,5.777777778,3.428571429,4.428571429,6.666666667,3.777777778
"217",204,5629186,"block b","musicreaders","trial",17,2180,1,1,"invalid","invalid","musicreaders","musicreaders","Piano",3.444444444,5.777777778,3.428571429,4.428571429,6.666666667,3.777777778
"218",218,5629186,"block a","musicreaders","trial",17,1163.6,1,1,"valid","valid","musicreaders","musicreaders","Piano",3.444444444,5.777777778,3.428571429,4.428571429,6.666666667,3.777777778
"219",219,5629186,"block a","musicreaders","trial",18,1654.1,1,1,"valid","valid","musicreaders","musicreaders","Piano",3.444444444,5.777777778,3.428571429,4.428571429,6.666666667,3.777777778
"220",228,5629186,"block b","musicreaders","trial",18,2683.6,1,0,"invalid","invalid","musicreaders","musicreaders","Piano",3.444444444,5.777777778,3.428571429,4.428571429,6.666666667,3.777777778
"221",220,5629186,"block a","musicreaders","trial",19,1603.9,1,1,"valid","valid","musicreaders","musicreaders","Piano",3.444444444,5.777777778,3.428571429,4.428571429,6.666666667,3.777777778
"222",225,5629186,"block b","musicreaders","trial",19,2183.2,1,1,"neutral","neutral","musicreaders","musicreaders","Piano",3.444444444,5.777777778,3.428571429,4.428571429,6.666666667,3.777777778
"223",221,5629186,"block a","musicreaders","trial",20,1818.5,1,1,"valid","valid","musicreaders","musicreaders","Piano",3.444444444,5.777777778,3.428571429,4.428571429,6.666666667,3.777777778
"224",226,5629186,"block b","musicreaders","trial",20,3660.4,1,1,"valid","valid","musicreaders","musicreaders","Piano",3.444444444,5.777777778,3.428571429,4.428571429,6.666666667,3.777777778
"225",222,5629186,"block a","musicreaders","trial",21,2472.4,1,1,"valid","valid","musicreaders","musicreaders","Piano",3.444444444,5.777777778,3.428571429,4.428571429,6.666666667,3.777777778
"226",227,5629186,"block b","musicreaders","trial",21,3041.8,1,1,"valid","valid","musicreaders","musicreaders","Piano",3.444444444,5.777777778,3.428571429,4.428571429,6.666666667,3.777777778
"227",223,5629186,"block a","musicreaders","trial",22,4064.4,1,1,"neutral","neutral","musicreaders","musicreaders","Piano",3.444444444,5.777777778,3.428571429,4.428571429,6.666666667,3.777777778
"228",230,5629186,"block b","musicreaders","trial",22,2485.2,1,1,"valid","valid","musicreaders","musicreaders","Piano",3.444444444,5.777777778,3.428571429,4.428571429,6.666666667,3.777777778
"229",224,5629186,"block a","musicreaders","trial",23,1700.4,1,1,"invalid","invalid","musicreaders","musicreaders","Piano",3.444444444,5.777777778,3.428571429,4.428571429,6.666666667,3.777777778
"230",229,5629186,"block b","musicreaders","trial",23,2126.1,1,1,"valid","valid","musicreaders","musicreaders","Piano",3.444444444,5.777777778,3.428571429,4.428571429,6.666666667,3.777777778
"231",238,5629196,"block b","nonreaders","trial",1,1284.8,1,1,"valid","valid","nonreaders","nonreaders","",3.555555556,4.777777778,1,2.857142857,4.5,2.333333333
"232",254,5629196,"block c","nonreaders","trial",1,5636.4,1,0,"valid","valid","nonreaders","nonreaders","",3.555555556,4.777777778,1,2.857142857,4.5,2.333333333
"233",232,5629196,"block b","nonreaders","trial",2,1784.2,1,1,"invalid","invalid","nonreaders","nonreaders","",3.555555556,4.777777778,1,2.857142857,4.5,2.333333333
"234",268,5629196,"block c","nonreaders","trial",2,2304.2,1,1,"valid","valid","nonreaders","nonreaders","",3.555555556,4.777777778,1,2.857142857,4.5,2.333333333
"235",231,5629196,"block b","nonreaders","trial",3,3698,1,0,"invalid","invalid","nonreaders","nonreaders","",3.555555556,4.777777778,1,2.857142857,4.5,2.333333333
"236",269,5629196,"block c","nonreaders","trial",3,1819.2,1,1,"valid","valid","nonreaders","nonreaders","",3.555555556,4.777777778,1,2.857142857,4.5,2.333333333
"237",236,5629196,"block b","nonreaders","trial",4,2252.5,1,1,"neutral","neutral","nonreaders","nonreaders","",3.555555556,4.777777778,1,2.857142857,4.5,2.333333333
"238",270,5629196,"block c","nonreaders","trial",4,2345,1,1,"valid","valid","nonreaders","nonreaders","",3.555555556,4.777777778,1,2.857142857,4.5,2.333333333
"239",242,5629196,"block b","nonreaders","trial",5,2057.9,1,1,"neutral","neutral","nonreaders","nonreaders","",3.555555556,4.777777778,1,2.857142857,4.5,2.333333333
"240",276,5629196,"block c","nonreaders","trial",5,1898.6,1,0,"neutral","neutral","nonreaders","nonreaders","",3.555555556,4.777777778,1,2.857142857,4.5,2.333333333
"241",243,5629196,"block b","nonreaders","trial",6,1956.2,1,0,"valid","valid","nonreaders","nonreaders","",3.555555556,4.777777778,1,2.857142857,4.5,2.333333333
"242",272,5629196,"block c","nonreaders","trial",6,1727.4,1,0,"valid","valid","nonreaders","nonreaders","",3.555555556,4.777777778,1,2.857142857,4.5,2.333333333
"243",244,5629196,"block b","nonreaders","trial",7,1357.5,1,0,"valid","valid","nonreaders","nonreaders","",3.555555556,4.777777778,1,2.857142857,4.5,2.333333333
"244",259,5629196,"block c","nonreaders","trial",7,1595.6,1,0,"valid","valid","nonreaders","nonreaders","",3.555555556,4.777777778,1,2.857142857,4.5,2.333333333
"245",247,5629196,"block c","nonreaders","trial",8,2122.5,1,0,"invalid","invalid","nonreaders","nonreaders","",3.555555556,4.777777778,1,2.857142857,4.5,2.333333333
"246",258,5629196,"block b","nonreaders","trial",8,2244.4,1,1,"valid","valid","nonreaders","nonreaders","",3.555555556,4.777777778,1,2.857142857,4.5,2.333333333
"247",233,5629196,"block b","nonreaders","trial",9,2238,1,0,"valid","valid","nonreaders","nonreaders","",3.555555556,4.777777778,1,2.857142857,4.5,2.333333333
"248",248,5629196,"block c","nonreaders","trial",9,2119.1,1,1,"valid","valid","nonreaders","nonreaders","",3.555555556,4.777777778,1,2.857142857,4.5,2.333333333
"249",245,5629196,"block b","nonreaders","trial",10,2782.6,1,0,"invalid","invalid","nonreaders","nonreaders","",3.555555556,4.777777778,1,2.857142857,4.5,2.333333333
"250",249,5629196,"block c","nonreaders","trial",10,2349.7,1,0,"invalid","invalid","nonreaders","nonreaders","",3.555555556,4.777777778,1,2.857142857,4.5,2.333333333
"251",237,5629196,"block b","nonreaders","trial",11,2957.8,1,1,"valid","valid","nonreaders","nonreaders","",3.555555556,4.777777778,1,2.857142857,4.5,2.333333333
"252",250,5629196,"block c","nonreaders","trial",11,2294.7,1,0,"neutral","neutral","nonreaders","nonreaders","",3.555555556,4.777777778,1,2.857142857,4.5,2.333333333
"253",251,5629196,"block c","nonreaders","trial",12,2313.4,1,1,"valid","valid","nonreaders","nonreaders","",3.555555556,4.777777778,1,2.857142857,4.5,2.333333333
"254",265,5629196,"block b","nonreaders","trial",12,2292.8,1,1,"neutral","neutral","nonreaders","nonreaders","",3.555555556,4.777777778,1,2.857142857,4.5,2.333333333
"255",239,5629196,"block b","nonreaders","trial",13,2008.8,1,1,"valid","valid","nonreaders","nonreaders","",3.555555556,4.777777778,1,2.857142857,4.5,2.333333333
"256",252,5629196,"block c","nonreaders","trial",13,2442.8,1,1,"valid","valid","nonreaders","nonreaders","",3.555555556,4.777777778,1,2.857142857,4.5,2.333333333
"257",240,5629196,"block b","nonreaders","trial",14,5234.2,1,0,"valid","valid","nonreaders","nonreaders","",3.555555556,4.777777778,1,2.857142857,4.5,2.333333333
"258",253,5629196,"block c","nonreaders","trial",14,1932.9,1,0,"valid","valid","nonreaders","nonreaders","",3.555555556,4.777777778,1,2.857142857,4.5,2.333333333
"259",241,5629196,"block c","nonreaders","trial",15,2149.9,1,1,"valid","valid","nonreaders","nonreaders","",3.555555556,4.777777778,1,2.857142857,4.5,2.333333333
"260",274,5629196,"block b","nonreaders","trial",15,2633.2,1,0,"valid","valid","nonreaders","nonreaders","",3.555555556,4.777777778,1,2.857142857,4.5,2.333333333
"261",255,5629196,"block c","nonreaders","trial",16,2251.7,1,1,"invalid","invalid","nonreaders","nonreaders","",3.555555556,4.777777778,1,2.857142857,4.5,2.333333333
"262",275,5629196,"block b","nonreaders","trial",16,1898.2,1,0,"valid","valid","nonreaders","nonreaders","",3.555555556,4.777777778,1,2.857142857,4.5,2.333333333
"263",256,5629196,"block c","nonreaders","trial",17,1784.3,1,0,"valid","valid","nonreaders","nonreaders","",3.555555556,4.777777778,1,2.857142857,4.5,2.333333333
"264",260,5629196,"block b","nonreaders","trial",17,3365.1,1,1,"valid","valid","nonreaders","nonreaders","",3.555555556,4.777777778,1,2.857142857,4.5,2.333333333
"265",257,5629196,"block c","nonreaders","trial",18,1054.9,1,0,"valid","valid","nonreaders","nonreaders","",3.555555556,4.777777778,1,2.857142857,4.5,2.333333333
"266",261,5629196,"block b","nonreaders","trial",18,1691.7,1,0,"valid","valid","nonreaders","nonreaders","",3.555555556,4.777777778,1,2.857142857,4.5,2.333333333
"267",262,5629196,"block b","nonreaders","trial",19,2898,1,1,"neutral","neutral","nonreaders","nonreaders","",3.555555556,4.777777778,1,2.857142857,4.5,2.333333333
"268",267,5629196,"block c","nonreaders","trial",19,2428.3,1,1,"valid","valid","nonreaders","nonreaders","",3.555555556,4.777777778,1,2.857142857,4.5,2.333333333
"269",263,5629196,"block b","nonreaders","trial",20,2426.1,1,1,"valid","valid","nonreaders","nonreaders","",3.555555556,4.777777778,1,2.857142857,4.5,2.333333333
"270",271,5629196,"block c","nonreaders","trial",20,2487.8,1,0,"valid","valid","nonreaders","nonreaders","",3.555555556,4.777777778,1,2.857142857,4.5,2.333333333
"271",246,5629196,"block c","nonreaders","trial",21,1842.1,1,0,"neutral","neutral","nonreaders","nonreaders","",3.555555556,4.777777778,1,2.857142857,4.5,2.333333333
"272",264,5629196,"block b","nonreaders","trial",21,2801.2,1,1,"valid","valid","nonreaders","nonreaders","",3.555555556,4.777777778,1,2.857142857,4.5,2.333333333
"273",234,5629196,"block c","nonreaders","trial",22,2518.6,1,0,"invalid","invalid","nonreaders","nonreaders","",3.555555556,4.777777778,1,2.857142857,4.5,2.333333333
"274",273,5629196,"block b","nonreaders","trial",22,3002,1,0,"invalid","invalid","nonreaders","nonreaders","",3.555555556,4.777777778,1,2.857142857,4.5,2.333333333
"275",235,5629196,"block c","nonreaders","trial",23,2861.5,1,1,"neutral","neutral","nonreaders","nonreaders","",3.555555556,4.777777778,1,2.857142857,4.5,2.333333333
"276",266,5629196,"block b","nonreaders","trial",23,1997.6,1,1,"valid","valid","nonreaders","nonreaders","",3.555555556,4.777777778,1,2.857142857,4.5,2.333333333
"277",305,5630882,"block c","nonreaders","trial",1,3593,1,0,"valid","valid","nonreaders","nonreaders","n/a",1.111111111,1.777777778,1,1.571428571,2.166666667,1.388888889
"278",311,5630882,"block b","nonreaders","trial",1,5637.6,1,1,"valid","valid","nonreaders","nonreaders","n/a",1.111111111,1.777777778,1,1.571428571,2.166666667,1.388888889
"279",299,5630882,"block b","nonreaders","trial",2,31264.8,1,0,"valid","valid","nonreaders","nonreaders","n/a",1.111111111,1.777777778,1,1.571428571,2.166666667,1.388888889
"280",306,5630882,"block c","nonreaders","trial",2,3069.4,1,0,"valid","valid","nonreaders","nonreaders","n/a",1.111111111,1.777777778,1,1.571428571,2.166666667,1.388888889
"281",293,5630882,"block c","nonreaders","trial",3,2279.1,1,0,"neutral","neutral","nonreaders","nonreaders","n/a",1.111111111,1.777777778,1,1.571428571,2.166666667,1.388888889
"282",313,5630882,"block b","nonreaders","trial",3,15165.8,1,1,"neutral","neutral","nonreaders","nonreaders","n/a",1.111111111,1.777777778,1,1.571428571,2.166666667,1.388888889
"283",307,5630882,"block c","nonreaders","trial",4,1847.9,1,1,"invalid","invalid","nonreaders","nonreaders","n/a",1.111111111,1.777777778,1,1.571428571,2.166666667,1.388888889
"284",314,5630882,"block b","nonreaders","trial",4,2673.7,1,0,"valid","valid","nonreaders","nonreaders","n/a",1.111111111,1.777777778,1,1.571428571,2.166666667,1.388888889
"285",320,5630882,"block c","nonreaders","trial",5,3619.3,1,0,"valid","valid","nonreaders","nonreaders","n/a",1.111111111,1.777777778,1,1.571428571,2.166666667,1.388888889
"286",321,5630882,"block b","nonreaders","trial",5,10085,1,0,"valid","valid","nonreaders","nonreaders","n/a",1.111111111,1.777777778,1,1.571428571,2.166666667,1.388888889
"287",318,5630882,"block c","nonreaders","trial",6,2394.4,1,1,"valid","valid","nonreaders","nonreaders","n/a",1.111111111,1.777777778,1,1.571428571,2.166666667,1.388888889
"288",322,5630882,"block b","nonreaders","trial",6,2904.1,1,1,"valid","valid","nonreaders","nonreaders","n/a",1.111111111,1.777777778,1,1.571428571,2.166666667,1.388888889
"289",317,5630882,"block b","nonreaders","trial",7,4836.9,1,1,"valid","valid","nonreaders","nonreaders","n/a",1.111111111,1.777777778,1,1.571428571,2.166666667,1.388888889
"290",319,5630882,"block c","nonreaders","trial",7,1602.2,1,1,"valid","valid","nonreaders","nonreaders","n/a",1.111111111,1.777777778,1,1.571428571,2.166666667,1.388888889
"291",312,5630882,"block c","nonreaders","trial",8,2337.1,1,0,"neutral","neutral","nonreaders","nonreaders","n/a",1.111111111,1.777777778,1,1.571428571,2.166666667,1.388888889
"292",316,5630882,"block b","nonreaders","trial",8,2149,1,1,"valid","valid","nonreaders","nonreaders","n/a",1.111111111,1.777777778,1,1.571428571,2.166666667,1.388888889
"293",298,5630882,"block c","nonreaders","trial",9,1119.2,1,1,"valid","valid","nonreaders","nonreaders","n/a",1.111111111,1.777777778,1,1.571428571,2.166666667,1.388888889
"294",304,5630882,"block b","nonreaders","trial",9,4774.1,1,1,"valid","valid","nonreaders","nonreaders","n/a",1.111111111,1.777777778,1,1.571428571,2.166666667,1.388888889
"295",289,5630882,"block c","nonreaders","trial",10,3203.6,1,0,"valid","valid","nonreaders","nonreaders","n/a",1.111111111,1.777777778,1,1.571428571,2.166666667,1.388888889
"296",292,5630882,"block b","nonreaders","trial",10,3898.1,1,0,"valid","valid","nonreaders","nonreaders","n/a",1.111111111,1.777777778,1,1.571428571,2.166666667,1.388888889
"297",283,5630882,"block b","nonreaders","trial",11,3143,1,1,"valid","valid","nonreaders","nonreaders","n/a",1.111111111,1.777777778,1,1.571428571,2.166666667,1.388888889
"298",286,5630882,"block c","nonreaders","trial",11,2940.6,1,1,"valid","valid","nonreaders","nonreaders","n/a",1.111111111,1.777777778,1,1.571428571,2.166666667,1.388888889
"299",280,5630882,"block b","nonreaders","trial",12,2611.2,1,0,"valid","valid","nonreaders","nonreaders","n/a",1.111111111,1.777777778,1,1.571428571,2.166666667,1.388888889
"300",300,5630882,"block c","nonreaders","trial",12,3127.4,1,1,"valid","valid","nonreaders","nonreaders","n/a",1.111111111,1.777777778,1,1.571428571,2.166666667,1.388888889
"301",294,5630882,"block b","nonreaders","trial",13,3230.4,1,0,"neutral","neutral","nonreaders","nonreaders","n/a",1.111111111,1.777777778,1,1.571428571,2.166666667,1.388888889
"302",301,5630882,"block c","nonreaders","trial",13,4285.6,1,1,"valid","valid","nonreaders","nonreaders","n/a",1.111111111,1.777777778,1,1.571428571,2.166666667,1.388888889
"303",308,5630882,"block b","nonreaders","trial",14,5172.4,1,1,"invalid","invalid","nonreaders","nonreaders","n/a",1.111111111,1.777777778,1,1.571428571,2.166666667,1.388888889
"304",315,5630882,"block c","nonreaders","trial",14,3452.9,1,1,"neutral","neutral","nonreaders","nonreaders","n/a",1.111111111,1.777777778,1,1.571428571,2.166666667,1.388888889
"305",303,5630882,"block c","nonreaders","trial",15,3903.8,1,1,"valid","valid","nonreaders","nonreaders","n/a",1.111111111,1.777777778,1,1.571428571,2.166666667,1.388888889
"306",310,5630882,"block b","nonreaders","trial",15,2644.2,1,0,"valid","valid","nonreaders","nonreaders","n/a",1.111111111,1.777777778,1,1.571428571,2.166666667,1.388888889
"307",277,5630882,"block b","nonreaders","trial",16,3255.2,1,1,"valid","valid","nonreaders","nonreaders","n/a",1.111111111,1.777777778,1,1.571428571,2.166666667,1.388888889
"308",302,5630882,"block c","nonreaders","trial",16,3999.4,1,0,"invalid","invalid","nonreaders","nonreaders","n/a",1.111111111,1.777777778,1,1.571428571,2.166666667,1.388888889
"309",290,5630882,"block c","nonreaders","trial",17,3906.8,1,1,"valid","valid","nonreaders","nonreaders","n/a",1.111111111,1.777777778,1,1.571428571,2.166666667,1.388888889
"310",309,5630882,"block b","nonreaders","trial",17,4373.1,1,1,"valid","valid","nonreaders","nonreaders","n/a",1.111111111,1.777777778,1,1.571428571,2.166666667,1.388888889
"311",291,5630882,"block c","nonreaders","trial",18,4136.6,1,1,"invalid","invalid","nonreaders","nonreaders","n/a",1.111111111,1.777777778,1,1.571428571,2.166666667,1.388888889
"312",297,5630882,"block b","nonreaders","trial",18,3592,1,1,"neutral","neutral","nonreaders","nonreaders","n/a",1.111111111,1.777777778,1,1.571428571,2.166666667,1.388888889
"313",282,5630882,"block c","nonreaders","trial",19,18472,1,0,"valid","valid","nonreaders","nonreaders","n/a",1.111111111,1.777777778,1,1.571428571,2.166666667,1.388888889
"314",284,5630882,"block b","nonreaders","trial",19,2662,1,1,"neutral","neutral","nonreaders","nonreaders","n/a",1.111111111,1.777777778,1,1.571428571,2.166666667,1.388888889
"315",278,5630882,"block b","nonreaders","trial",20,2040.9,1,0,"invalid","invalid","nonreaders","nonreaders","n/a",1.111111111,1.777777778,1,1.571428571,2.166666667,1.388888889
"316",279,5630882,"block c","nonreaders","trial",20,4292.7,1,1,"neutral","neutral","nonreaders","nonreaders","n/a",1.111111111,1.777777778,1,1.571428571,2.166666667,1.388888889
"317",281,5630882,"block b","nonreaders","trial",21,943.3,1,1,"valid","valid","nonreaders","nonreaders","n/a",1.111111111,1.777777778,1,1.571428571,2.166666667,1.388888889
"318",285,5630882,"block c","nonreaders","trial",21,2672.2,1,0,"valid","valid","nonreaders","nonreaders","n/a",1.111111111,1.777777778,1,1.571428571,2.166666667,1.388888889
"319",287,5630882,"block b","nonreaders","trial",22,1104.7,1,1,"invalid","invalid","nonreaders","nonreaders","n/a",1.111111111,1.777777778,1,1.571428571,2.166666667,1.388888889
"320",295,5630882,"block c","nonreaders","trial",22,2462.7,1,1,"valid","valid","nonreaders","nonreaders","n/a",1.111111111,1.777777778,1,1.571428571,2.166666667,1.388888889
"321",288,5630882,"block b","nonreaders","trial",23,3477.2,1,1,"invalid","invalid","nonreaders","nonreaders","n/a",1.111111111,1.777777778,1,1.571428571,2.166666667,1.388888889
"322",296,5630882,"block c","nonreaders","trial",23,3282.3,1,1,"invalid","invalid","nonreaders","nonreaders","n/a",1.111111111,1.777777778,1,1.571428571,2.166666667,1.388888889
"323",331,5641681,"block c","nonreaders","trial",1,3089,1,1,"neutral","neutral","nonreaders","nonreaders","Guitar",3.222222222,6.111111111,4.857142857,4.857142857,6.333333333,4.722222222
"324",336,5641681,"block b","nonreaders","trial",1,1930.8,1,1,"valid","valid","nonreaders","nonreaders","Guitar",3.222222222,6.111111111,4.857142857,4.857142857,6.333333333,4.722222222
"325",328,5641681,"block b","nonreaders","trial",2,5710,1,1,"invalid","invalid","nonreaders","nonreaders","Guitar",3.222222222,6.111111111,4.857142857,4.857142857,6.333333333,4.722222222
"326",332,5641681,"block c","nonreaders","trial",2,2185.4,1,1,"valid","valid","nonreaders","nonreaders","Guitar",3.222222222,6.111111111,4.857142857,4.857142857,6.333333333,4.722222222
"327",325,5641681,"block b","nonreaders","trial",3,2443,1,1,"valid","valid","nonreaders","nonreaders","Guitar",3.222222222,6.111111111,4.857142857,4.857142857,6.333333333,4.722222222
"328",346,5641681,"block c","nonreaders","trial",3,2059.7,1,1,"valid","valid","nonreaders","nonreaders","Guitar",3.222222222,6.111111111,4.857142857,4.857142857,6.333333333,4.722222222
"329",334,5641681,"block c","nonreaders","trial",4,1481.2,1,1,"valid","valid","nonreaders","nonreaders","Guitar",3.222222222,6.111111111,4.857142857,4.857142857,6.333333333,4.722222222
"330",339,5641681,"block b","nonreaders","trial",4,1750.2,1,0,"valid","valid","nonreaders","nonreaders","Guitar",3.222222222,6.111111111,4.857142857,4.857142857,6.333333333,4.722222222
"331",340,5641681,"block b","nonreaders","trial",5,1593.9,1,1,"neutral","neutral","nonreaders","nonreaders","Guitar",3.222222222,6.111111111,4.857142857,4.857142857,6.333333333,4.722222222
"332",348,5641681,"block c","nonreaders","trial",5,1516.6,1,1,"invalid","invalid","nonreaders","nonreaders","Guitar",3.222222222,6.111111111,4.857142857,4.857142857,6.333333333,4.722222222
"333",341,5641681,"block b","nonreaders","trial",6,2077.3,1,1,"neutral","neutral","nonreaders","nonreaders","Guitar",3.222222222,6.111111111,4.857142857,4.857142857,6.333333333,4.722222222
"334",349,5641681,"block c","nonreaders","trial",6,5108,1,1,"valid","valid","nonreaders","nonreaders","Guitar",3.222222222,6.111111111,4.857142857,4.857142857,6.333333333,4.722222222
"335",337,5641681,"block c","nonreaders","trial",7,2428.1,1,1,"invalid","invalid","nonreaders","nonreaders","Guitar",3.222222222,6.111111111,4.857142857,4.857142857,6.333333333,4.722222222
"336",342,5641681,"block b","nonreaders","trial",7,4424.5,1,1,"invalid","invalid","nonreaders","nonreaders","Guitar",3.222222222,6.111111111,4.857142857,4.857142857,6.333333333,4.722222222
"337",330,5641681,"block b","nonreaders","trial",8,2723.8,1,1,"valid","valid","nonreaders","nonreaders","Guitar",3.222222222,6.111111111,4.857142857,4.857142857,6.333333333,4.722222222
"338",338,5641681,"block c","nonreaders","trial",8,1473.4,1,1,"neutral","neutral","nonreaders","nonreaders","Guitar",3.222222222,6.111111111,4.857142857,4.857142857,6.333333333,4.722222222
"339",329,5641681,"block b","nonreaders","trial",9,1543,1,0,"valid","valid","nonreaders","nonreaders","Guitar",3.222222222,6.111111111,4.857142857,4.857142857,6.333333333,4.722222222
"340",360,5641681,"block c","nonreaders","trial",9,1977.6,1,1,"invalid","invalid","nonreaders","nonreaders","Guitar",3.222222222,6.111111111,4.857142857,4.857142857,6.333333333,4.722222222
"341",323,5641681,"block b","nonreaders","trial",10,2731.6,1,1,"valid","valid","nonreaders","nonreaders","Guitar",3.222222222,6.111111111,4.857142857,4.857142857,6.333333333,4.722222222
"342",364,5641681,"block c","nonreaders","trial",10,3099.8,1,0,"neutral","neutral","nonreaders","nonreaders","Guitar",3.222222222,6.111111111,4.857142857,4.857142857,6.333333333,4.722222222
"343",326,5641681,"block b","nonreaders","trial",11,1763.1,1,1,"invalid","invalid","nonreaders","nonreaders","Guitar",3.222222222,6.111111111,4.857142857,4.857142857,6.333333333,4.722222222
"344",365,5641681,"block c","nonreaders","trial",11,2663.6,1,1,"valid","valid","nonreaders","nonreaders","Guitar",3.222222222,6.111111111,4.857142857,4.857142857,6.333333333,4.722222222
"345",327,5641681,"block b","nonreaders","trial",12,2578.1,1,1,"valid","valid","nonreaders","nonreaders","Guitar",3.222222222,6.111111111,4.857142857,4.857142857,6.333333333,4.722222222
"346",357,5641681,"block c","nonreaders","trial",12,1610.2,1,1,"neutral","neutral","nonreaders","nonreaders","Guitar",3.222222222,6.111111111,4.857142857,4.857142857,6.333333333,4.722222222
"347",333,5641681,"block b","nonreaders","trial",13,1325.6,1,1,"valid","valid","nonreaders","nonreaders","Guitar",3.222222222,6.111111111,4.857142857,4.857142857,6.333333333,4.722222222
"348",345,5641681,"block c","nonreaders","trial",13,1713.8,1,0,"valid","valid","nonreaders","nonreaders","Guitar",3.222222222,6.111111111,4.857142857,4.857142857,6.333333333,4.722222222
"349",324,5641681,"block b","nonreaders","trial",14,3354.7,1,1,"invalid","invalid","nonreaders","nonreaders","Guitar",3.222222222,6.111111111,4.857142857,4.857142857,6.333333333,4.722222222
"350",368,5641681,"block c","nonreaders","trial",14,2244.2,1,1,"valid","valid","nonreaders","nonreaders","Guitar",3.222222222,6.111111111,4.857142857,4.857142857,6.333333333,4.722222222
"351",335,5641681,"block b","nonreaders","trial",15,2838.8,1,1,"neutral","neutral","nonreaders","nonreaders","Guitar",3.222222222,6.111111111,4.857142857,4.857142857,6.333333333,4.722222222
"352",366,5641681,"block c","nonreaders","trial",15,2588.2,1,1,"invalid","invalid","nonreaders","nonreaders","Guitar",3.222222222,6.111111111,4.857142857,4.857142857,6.333333333,4.722222222
"353",353,5641681,"block b","nonreaders","trial",16,2387.2,1,1,"valid","valid","nonreaders","nonreaders","Guitar",3.222222222,6.111111111,4.857142857,4.857142857,6.333333333,4.722222222
"354",359,5641681,"block c","nonreaders","trial",16,1878.5,1,1,"valid","valid","nonreaders","nonreaders","Guitar",3.222222222,6.111111111,4.857142857,4.857142857,6.333333333,4.722222222
"355",354,5641681,"block b","nonreaders","trial",17,2239.1,1,1,"valid","valid","nonreaders","nonreaders","Guitar",3.222222222,6.111111111,4.857142857,4.857142857,6.333333333,4.722222222
"356",358,5641681,"block c","nonreaders","trial",17,2602.4,1,1,"valid","valid","nonreaders","nonreaders","Guitar",3.222222222,6.111111111,4.857142857,4.857142857,6.333333333,4.722222222
"357",350,5641681,"block c","nonreaders","trial",18,2387,1,1,"valid","valid","nonreaders","nonreaders","Guitar",3.222222222,6.111111111,4.857142857,4.857142857,6.333333333,4.722222222
"358",355,5641681,"block b","nonreaders","trial",18,2039.2,1,1,"valid","valid","nonreaders","nonreaders","Guitar",3.222222222,6.111111111,4.857142857,4.857142857,6.333333333,4.722222222
"359",351,5641681,"block c","nonreaders","trial",19,1349.2,1,1,"valid","valid","nonreaders","nonreaders","Guitar",3.222222222,6.111111111,4.857142857,4.857142857,6.333333333,4.722222222
"360",356,5641681,"block b","nonreaders","trial",19,2977.4,1,1,"valid","valid","nonreaders","nonreaders","Guitar",3.222222222,6.111111111,4.857142857,4.857142857,6.333333333,4.722222222
"361",343,5641681,"block b","nonreaders","trial",20,2405.1,1,0,"valid","valid","nonreaders","nonreaders","Guitar",3.222222222,6.111111111,4.857142857,4.857142857,6.333333333,4.722222222
"362",352,5641681,"block c","nonreaders","trial",20,1325.3,1,1,"valid","valid","nonreaders","nonreaders","Guitar",3.222222222,6.111111111,4.857142857,4.857142857,6.333333333,4.722222222
"363",344,5641681,"block b","nonreaders","trial",21,2906.2,1,1,"neutral","neutral","nonreaders","nonreaders","Guitar",3.222222222,6.111111111,4.857142857,4.857142857,6.333333333,4.722222222
"364",362,5641681,"block c","nonreaders","trial",21,2936.3,1,1,"valid","valid","nonreaders","nonreaders","Guitar",3.222222222,6.111111111,4.857142857,4.857142857,6.333333333,4.722222222
"365",347,5641681,"block b","nonreaders","trial",22,2091.2,1,1,"valid","valid","nonreaders","nonreaders","Guitar",3.222222222,6.111111111,4.857142857,4.857142857,6.333333333,4.722222222
"366",363,5641681,"block c","nonreaders","trial",22,2590.1,1,1,"valid","valid","nonreaders","nonreaders","Guitar",3.222222222,6.111111111,4.857142857,4.857142857,6.333333333,4.722222222
"367",361,5641681,"block b","nonreaders","trial",23,2782.2,1,1,"valid","valid","nonreaders","nonreaders","Guitar",3.222222222,6.111111111,4.857142857,4.857142857,6.333333333,4.722222222
"368",367,5641681,"block c","nonreaders","trial",23,2309.7,1,1,"valid","valid","nonreaders","nonreaders","Guitar",3.222222222,6.111111111,4.857142857,4.857142857,6.333333333,4.722222222
"369",382,5644822,"block b","nonreaders","trial",1,3105.7,1,0,"valid","valid","nonreaders","nonreaders","",4.222222222,4,1.285714286,2.428571429,4.5,2.5
"370",399,5644822,"block c","nonreaders","trial",1,3305,1,1,"invalid","invalid","nonreaders","nonreaders","",4.222222222,4,1.285714286,2.428571429,4.5,2.5
"371",386,5644822,"block c","nonreaders","trial",2,2673.6,1,0,"valid","valid","nonreaders","nonreaders","",4.222222222,4,1.285714286,2.428571429,4.5,2.5
"372",407,5644822,"block b","nonreaders","trial",2,1658.2,1,1,"valid","valid","nonreaders","nonreaders","",4.222222222,4,1.285714286,2.428571429,4.5,2.5
"373",373,5644822,"block b","nonreaders","trial",3,2524.5,1,1,"neutral","neutral","nonreaders","nonreaders","",4.222222222,4,1.285714286,2.428571429,4.5,2.5
"374",401,5644822,"block c","nonreaders","trial",3,3041,1,1,"valid","valid","nonreaders","nonreaders","",4.222222222,4,1.285714286,2.428571429,4.5,2.5
"375",402,5644822,"block c","nonreaders","trial",4,3924.7,1,1,"invalid","invalid","nonreaders","nonreaders","",4.222222222,4,1.285714286,2.428571429,4.5,2.5
"376",411,5644822,"block b","nonreaders","trial",4,3392.8,1,1,"valid","valid","nonreaders","nonreaders","",4.222222222,4,1.285714286,2.428571429,4.5,2.5
"377",387,5644822,"block c","nonreaders","trial",5,3425.6,1,1,"valid","valid","nonreaders","nonreaders","",4.222222222,4,1.285714286,2.428571429,4.5,2.5
"378",400,5644822,"block b","nonreaders","trial",5,2291,1,0,"valid","valid","nonreaders","nonreaders","",4.222222222,4,1.285714286,2.428571429,4.5,2.5
"379",388,5644822,"block c","nonreaders","trial",6,7225.8,1,1,"neutral","neutral","nonreaders","nonreaders","",4.222222222,4,1.285714286,2.428571429,4.5,2.5
"380",409,5644822,"block b","nonreaders","trial",6,3274,1,1,"neutral","neutral","nonreaders","nonreaders","",4.222222222,4,1.285714286,2.428571429,4.5,2.5
"381",379,5644822,"block c","nonreaders","trial",7,2540.7,1,1,"valid","valid","nonreaders","nonreaders","",4.222222222,4,1.285714286,2.428571429,4.5,2.5
"382",410,5644822,"block b","nonreaders","trial",7,3443,1,0,"invalid","invalid","nonreaders","nonreaders","",4.222222222,4,1.285714286,2.428571429,4.5,2.5
"383",376,5644822,"block c","nonreaders","trial",8,3791.2,1,1,"valid","valid","nonreaders","nonreaders","",4.222222222,4,1.285714286,2.428571429,4.5,2.5
"384",403,5644822,"block b","nonreaders","trial",8,2872.2,1,1,"invalid","invalid","nonreaders","nonreaders","",4.222222222,4,1.285714286,2.428571429,4.5,2.5
"385",377,5644822,"block c","nonreaders","trial",9,3875.7,1,1,"invalid","invalid","nonreaders","nonreaders","",4.222222222,4,1.285714286,2.428571429,4.5,2.5
"386",404,5644822,"block b","nonreaders","trial",9,2590.3,1,1,"valid","valid","nonreaders","nonreaders","",4.222222222,4,1.285714286,2.428571429,4.5,2.5
"387",391,5644822,"block c","nonreaders","trial",10,3025.2,1,1,"neutral","neutral","nonreaders","nonreaders","",4.222222222,4,1.285714286,2.428571429,4.5,2.5
"388",412,5644822,"block b","nonreaders","trial",10,3775.9,1,0,"neutral","neutral","nonreaders","nonreaders","",4.222222222,4,1.285714286,2.428571429,4.5,2.5
"389",392,5644822,"block c","nonreaders","trial",11,1875.3,1,1,"neutral","neutral","nonreaders","nonreaders","",4.222222222,4,1.285714286,2.428571429,4.5,2.5
"390",413,5644822,"block b","nonreaders","trial",11,4307.7,1,0,"invalid","invalid","nonreaders","nonreaders","",4.222222222,4,1.285714286,2.428571429,4.5,2.5
"391",393,5644822,"block c","nonreaders","trial",12,3792.6,1,0,"valid","valid","nonreaders","nonreaders","",4.222222222,4,1.285714286,2.428571429,4.5,2.5
"392",414,5644822,"block b","nonreaders","trial",12,2658.3,1,1,"invalid","invalid","nonreaders","nonreaders","",4.222222222,4,1.285714286,2.428571429,4.5,2.5
"393",394,5644822,"block c","nonreaders","trial",13,1758.2,1,1,"valid","valid","nonreaders","nonreaders","",4.222222222,4,1.285714286,2.428571429,4.5,2.5
"394",408,5644822,"block b","nonreaders","trial",13,3493.8,1,0,"valid","valid","nonreaders","nonreaders","",4.222222222,4,1.285714286,2.428571429,4.5,2.5
"395",380,5644822,"block c","nonreaders","trial",14,2907.9,1,1,"valid","valid","nonreaders","nonreaders","",4.222222222,4,1.285714286,2.428571429,4.5,2.5
"396",396,5644822,"block b","nonreaders","trial",14,5407,1,0,"neutral","neutral","nonreaders","nonreaders","",4.222222222,4,1.285714286,2.428571429,4.5,2.5
"397",381,5644822,"block c","nonreaders","trial",15,2640.1,1,1,"valid","valid","nonreaders","nonreaders","",4.222222222,4,1.285714286,2.428571429,4.5,2.5
"398",397,5644822,"block b","nonreaders","trial",15,3124.7,1,1,"valid","valid","nonreaders","nonreaders","",4.222222222,4,1.285714286,2.428571429,4.5,2.5
"399",369,5644822,"block c","nonreaders","trial",16,2440.4,1,1,"valid","valid","nonreaders","nonreaders","",4.222222222,4,1.285714286,2.428571429,4.5,2.5
"400",395,5644822,"block b","nonreaders","trial",16,2275.3,1,0,"valid","valid","nonreaders","nonreaders","",4.222222222,4,1.285714286,2.428571429,4.5,2.5
"401",370,5644822,"block c","nonreaders","trial",17,6957.8,1,1,"neutral","neutral","nonreaders","nonreaders","",4.222222222,4,1.285714286,2.428571429,4.5,2.5
"402",383,5644822,"block b","nonreaders","trial",17,3125.6,1,0,"valid","valid","nonreaders","nonreaders","",4.222222222,4,1.285714286,2.428571429,4.5,2.5
"403",374,5644822,"block c","nonreaders","trial",18,3325.2,1,1,"valid","valid","nonreaders","nonreaders","",4.222222222,4,1.285714286,2.428571429,4.5,2.5
"404",384,5644822,"block b","nonreaders","trial",18,3324.6,1,1,"valid","valid","nonreaders","nonreaders","",4.222222222,4,1.285714286,2.428571429,4.5,2.5
"405",371,5644822,"block c","nonreaders","trial",19,5126.8,1,1,"invalid","invalid","nonreaders","nonreaders","",4.222222222,4,1.285714286,2.428571429,4.5,2.5
"406",398,5644822,"block b","nonreaders","trial",19,2973.5,1,1,"valid","valid","nonreaders","nonreaders","",4.222222222,4,1.285714286,2.428571429,4.5,2.5
"407",378,5644822,"block b","nonreaders","trial",20,2908,1,1,"valid","valid","nonreaders","nonreaders","",4.222222222,4,1.285714286,2.428571429,4.5,2.5
"408",389,5644822,"block c","nonreaders","trial",20,2175.3,1,1,"valid","valid","nonreaders","nonreaders","",4.222222222,4,1.285714286,2.428571429,4.5,2.5
"409",375,5644822,"block b","nonreaders","trial",21,2775.9,1,0,"valid","valid","nonreaders","nonreaders","",4.222222222,4,1.285714286,2.428571429,4.5,2.5
"410",390,5644822,"block c","nonreaders","trial",21,3124.6,1,1,"valid","valid","nonreaders","nonreaders","",4.222222222,4,1.285714286,2.428571429,4.5,2.5
"411",385,5644822,"block b","nonreaders","trial",22,3207.4,1,0,"valid","valid","nonreaders","nonreaders","",4.222222222,4,1.285714286,2.428571429,4.5,2.5
"412",405,5644822,"block c","nonreaders","trial",22,3192.1,1,1,"valid","valid","nonreaders","nonreaders","",4.222222222,4,1.285714286,2.428571429,4.5,2.5
"413",372,5644822,"block b","nonreaders","trial",23,1758.1,1,1,"valid","valid","nonreaders","nonreaders","",4.222222222,4,1.285714286,2.428571429,4.5,2.5
"414",406,5644822,"block c","nonreaders","trial",23,8875.8,1,0,"valid","valid","nonreaders","nonreaders","",4.222222222,4,1.285714286,2.428571429,4.5,2.5
"415",417,5645045,"block a","musicreaders","trial",1,2560.9,1,1,"invalid","invalid","musicreaders","musicreaders","Piano",4.666666667,6.222222222,4.714285714,4.857142857,6.666666667,5.111111111
"416",435,5645045,"block b","musicreaders","trial",1,2353.6,1,1,"valid","valid","musicreaders","musicreaders","Piano",4.666666667,6.222222222,4.714285714,4.857142857,6.666666667,5.111111111
"417",415,5645045,"block a","musicreaders","trial",2,3878,1,1,"valid","valid","musicreaders","musicreaders","Piano",4.666666667,6.222222222,4.714285714,4.857142857,6.666666667,5.111111111
"418",436,5645045,"block b","musicreaders","trial",2,2384.5,1,0,"valid","valid","musicreaders","musicreaders","Piano",4.666666667,6.222222222,4.714285714,4.857142857,6.666666667,5.111111111
"419",416,5645045,"block a","musicreaders","trial",3,2441.9,1,1,"valid","valid","musicreaders","musicreaders","Piano",4.666666667,6.222222222,4.714285714,4.857142857,6.666666667,5.111111111
"420",437,5645045,"block b","musicreaders","trial",3,4068.4,1,1,"neutral","neutral","musicreaders","musicreaders","Piano",4.666666667,6.222222222,4.714285714,4.857142857,6.666666667,5.111111111
"421",420,5645045,"block a","musicreaders","trial",4,1942.3,1,1,"invalid","invalid","musicreaders","musicreaders","Piano",4.666666667,6.222222222,4.714285714,4.857142857,6.666666667,5.111111111
"422",438,5645045,"block b","musicreaders","trial",4,1432,1,1,"invalid","invalid","musicreaders","musicreaders","Piano",4.666666667,6.222222222,4.714285714,4.857142857,6.666666667,5.111111111
"423",421,5645045,"block a","musicreaders","trial",5,2736.2,1,1,"valid","valid","musicreaders","musicreaders","Piano",4.666666667,6.222222222,4.714285714,4.857142857,6.666666667,5.111111111
"424",439,5645045,"block b","musicreaders","trial",5,2578.8,1,1,"valid","valid","musicreaders","musicreaders","Piano",4.666666667,6.222222222,4.714285714,4.857142857,6.666666667,5.111111111
"425",418,5645045,"block a","musicreaders","trial",6,1586.8,1,1,"valid","valid","musicreaders","musicreaders","Piano",4.666666667,6.222222222,4.714285714,4.857142857,6.666666667,5.111111111
"426",440,5645045,"block b","musicreaders","trial",6,1274.1,1,1,"valid","valid","musicreaders","musicreaders","Piano",4.666666667,6.222222222,4.714285714,4.857142857,6.666666667,5.111111111
"427",419,5645045,"block a","musicreaders","trial",7,2538,1,0,"valid","valid","musicreaders","musicreaders","Piano",4.666666667,6.222222222,4.714285714,4.857142857,6.666666667,5.111111111
"428",441,5645045,"block b","musicreaders","trial",7,1803.3,1,1,"valid","valid","musicreaders","musicreaders","Piano",4.666666667,6.222222222,4.714285714,4.857142857,6.666666667,5.111111111
"429",429,5645045,"block a","musicreaders","trial",8,4551.8,1,0,"valid","valid","musicreaders","musicreaders","Piano",4.666666667,6.222222222,4.714285714,4.857142857,6.666666667,5.111111111
"430",442,5645045,"block b","musicreaders","trial",8,1652.8,1,1,"valid","valid","musicreaders","musicreaders","Piano",4.666666667,6.222222222,4.714285714,4.857142857,6.666666667,5.111111111
"431",430,5645045,"block a","musicreaders","trial",9,2863.2,1,0,"valid","valid","musicreaders","musicreaders","Piano",4.666666667,6.222222222,4.714285714,4.857142857,6.666666667,5.111111111
"432",443,5645045,"block b","musicreaders","trial",9,2640.8,1,1,"neutral","neutral","musicreaders","musicreaders","Piano",4.666666667,6.222222222,4.714285714,4.857142857,6.666666667,5.111111111
"433",431,5645045,"block a","musicreaders","trial",10,2330.8,1,1,"neutral","neutral","musicreaders","musicreaders","Piano",4.666666667,6.222222222,4.714285714,4.857142857,6.666666667,5.111111111
"434",444,5645045,"block b","musicreaders","trial",10,3425.4,1,1,"valid","valid","musicreaders","musicreaders","Piano",4.666666667,6.222222222,4.714285714,4.857142857,6.666666667,5.111111111
"435",432,5645045,"block a","musicreaders","trial",11,2056.8,1,0,"valid","valid","musicreaders","musicreaders","Piano",4.666666667,6.222222222,4.714285714,4.857142857,6.666666667,5.111111111
"436",445,5645045,"block b","musicreaders","trial",11,3387.7,1,1,"valid","valid","musicreaders","musicreaders","Piano",4.666666667,6.222222222,4.714285714,4.857142857,6.666666667,5.111111111
"437",433,5645045,"block a","musicreaders","trial",12,5752.3,1,1,"neutral","neutral","musicreaders","musicreaders","Piano",4.666666667,6.222222222,4.714285714,4.857142857,6.666666667,5.111111111
"438",446,5645045,"block b","musicreaders","trial",12,2622.3,1,1,"neutral","neutral","musicreaders","musicreaders","Piano",4.666666667,6.222222222,4.714285714,4.857142857,6.666666667,5.111111111
"439",434,5645045,"block a","musicreaders","trial",13,3129.8,1,0,"invalid","invalid","musicreaders","musicreaders","Piano",4.666666667,6.222222222,4.714285714,4.857142857,6.666666667,5.111111111
"440",447,5645045,"block b","musicreaders","trial",13,2416,1,1,"invalid","invalid","musicreaders","musicreaders","Piano",4.666666667,6.222222222,4.714285714,4.857142857,6.666666667,5.111111111
"441",422,5645045,"block a","musicreaders","trial",14,2411.5,1,1,"valid","valid","musicreaders","musicreaders","Piano",4.666666667,6.222222222,4.714285714,4.857142857,6.666666667,5.111111111
"442",448,5645045,"block b","musicreaders","trial",14,2370.6,1,1,"valid","valid","musicreaders","musicreaders","Piano",4.666666667,6.222222222,4.714285714,4.857142857,6.666666667,5.111111111
"443",423,5645045,"block a","musicreaders","trial",15,1729.2,1,1,"invalid","invalid","musicreaders","musicreaders","Piano",4.666666667,6.222222222,4.714285714,4.857142857,6.666666667,5.111111111
"444",449,5645045,"block b","musicreaders","trial",15,2923.8,1,0,"neutral","neutral","musicreaders","musicreaders","Piano",4.666666667,6.222222222,4.714285714,4.857142857,6.666666667,5.111111111
"445",424,5645045,"block a","musicreaders","trial",16,1729.4,1,1,"valid","valid","musicreaders","musicreaders","Piano",4.666666667,6.222222222,4.714285714,4.857142857,6.666666667,5.111111111
"446",450,5645045,"block b","musicreaders","trial",16,1746.1,1,1,"valid","valid","musicreaders","musicreaders","Piano",4.666666667,6.222222222,4.714285714,4.857142857,6.666666667,5.111111111
"447",425,5645045,"block a","musicreaders","trial",17,2309.3,1,1,"valid","valid","musicreaders","musicreaders","Piano",4.666666667,6.222222222,4.714285714,4.857142857,6.666666667,5.111111111
"448",451,5645045,"block b","musicreaders","trial",17,3300.3,1,1,"invalid","invalid","musicreaders","musicreaders","Piano",4.666666667,6.222222222,4.714285714,4.857142857,6.666666667,5.111111111
"449",426,5645045,"block a","musicreaders","trial",18,5418.2,1,0,"valid","valid","musicreaders","musicreaders","Piano",4.666666667,6.222222222,4.714285714,4.857142857,6.666666667,5.111111111
"450",452,5645045,"block b","musicreaders","trial",18,2338.4,1,1,"valid","valid","musicreaders","musicreaders","Piano",4.666666667,6.222222222,4.714285714,4.857142857,6.666666667,5.111111111
"451",427,5645045,"block a","musicreaders","trial",19,1785.6,1,1,"valid","valid","musicreaders","musicreaders","Piano",4.666666667,6.222222222,4.714285714,4.857142857,6.666666667,5.111111111
"452",453,5645045,"block b","musicreaders","trial",19,2680.7,1,1,"valid","valid","musicreaders","musicreaders","Piano",4.666666667,6.222222222,4.714285714,4.857142857,6.666666667,5.111111111
"453",428,5645045,"block a","musicreaders","trial",20,2957.2,1,1,"valid","valid","musicreaders","musicreaders","Piano",4.666666667,6.222222222,4.714285714,4.857142857,6.666666667,5.111111111
"454",454,5645045,"block b","musicreaders","trial",20,2198.8,1,1,"invalid","invalid","musicreaders","musicreaders","Piano",4.666666667,6.222222222,4.714285714,4.857142857,6.666666667,5.111111111
"455",455,5645045,"block b","musicreaders","trial",21,2374.6,1,1,"valid","valid","musicreaders","musicreaders","Piano",4.666666667,6.222222222,4.714285714,4.857142857,6.666666667,5.111111111
"456",460,5645045,"block a","musicreaders","trial",21,2405.1,1,1,"neutral","neutral","musicreaders","musicreaders","Piano",4.666666667,6.222222222,4.714285714,4.857142857,6.666666667,5.111111111
"457",456,5645045,"block b","musicreaders","trial",22,3171.5,1,1,"valid","valid","musicreaders","musicreaders","Piano",4.666666667,6.222222222,4.714285714,4.857142857,6.666666667,5.111111111
"458",458,5645045,"block a","musicreaders","trial",22,3774.2,1,0,"neutral","neutral","musicreaders","musicreaders","Piano",4.666666667,6.222222222,4.714285714,4.857142857,6.666666667,5.111111111
"459",457,5645045,"block b","musicreaders","trial",23,2846.5,1,0,"valid","valid","musicreaders","musicreaders","Piano",4.666666667,6.222222222,4.714285714,4.857142857,6.666666667,5.111111111
"460",459,5645045,"block a","musicreaders","trial",23,2809.8,1,1,"valid","valid","musicreaders","musicreaders","Piano",4.666666667,6.222222222,4.714285714,4.857142857,6.666666667,5.111111111
"461",471,5648092,"block b","musicreaders","trial",1,3199,1,1,"invalid","invalid","musicreaders","musicreaders","Piano",1.888888889,4.777777778,3.857142857,4,3.833333333,3.5
"462",496,5648092,"block a","musicreaders","trial",1,6900.4,1,1,"valid","valid","musicreaders","musicreaders","Piano",1.888888889,4.777777778,3.857142857,4,3.833333333,3.5
"463",472,5648092,"block b","musicreaders","trial",2,5332.3,1,1,"valid","valid","musicreaders","musicreaders","Piano",1.888888889,4.777777778,3.857142857,4,3.833333333,3.5
"464",501,5648092,"block a","musicreaders","trial",2,3365.9,1,0,"neutral","neutral","musicreaders","musicreaders","Piano",1.888888889,4.777777778,3.857142857,4,3.833333333,3.5
"465",461,5648092,"block b","musicreaders","trial",3,7357.5,1,1,"valid","valid","musicreaders","musicreaders","Piano",1.888888889,4.777777778,3.857142857,4,3.833333333,3.5
"466",502,5648092,"block a","musicreaders","trial",3,2054.1,1,1,"valid","valid","musicreaders","musicreaders","Piano",1.888888889,4.777777778,3.857142857,4,3.833333333,3.5
"467",462,5648092,"block b","musicreaders","trial",4,1898.9,1,1,"valid","valid","musicreaders","musicreaders","Piano",1.888888889,4.777777778,3.857142857,4,3.833333333,3.5
"468",503,5648092,"block a","musicreaders","trial",4,1293.9,1,1,"invalid","invalid","musicreaders","musicreaders","Piano",1.888888889,4.777777778,3.857142857,4,3.833333333,3.5
"469",466,5648092,"block b","musicreaders","trial",5,5067.6,1,1,"valid","valid","musicreaders","musicreaders","Piano",1.888888889,4.777777778,3.857142857,4,3.833333333,3.5
"470",500,5648092,"block a","musicreaders","trial",5,4663.8,1,1,"valid","valid","musicreaders","musicreaders","Piano",1.888888889,4.777777778,3.857142857,4,3.833333333,3.5
"471",463,5648092,"block b","musicreaders","trial",6,2542.1,1,1,"valid","valid","musicreaders","musicreaders","Piano",1.888888889,4.777777778,3.857142857,4,3.833333333,3.5
"472",504,5648092,"block a","musicreaders","trial",6,2067.8,1,1,"neutral","neutral","musicreaders","musicreaders","Piano",1.888888889,4.777777778,3.857142857,4,3.833333333,3.5
"473",464,5648092,"block b","musicreaders","trial",7,1115.1,1,1,"valid","valid","musicreaders","musicreaders","Piano",1.888888889,4.777777778,3.857142857,4,3.833333333,3.5
"474",505,5648092,"block a","musicreaders","trial",7,1231.2,1,1,"valid","valid","musicreaders","musicreaders","Piano",1.888888889,4.777777778,3.857142857,4,3.833333333,3.5
"475",465,5648092,"block b","musicreaders","trial",8,4434.3,1,1,"invalid","invalid","musicreaders","musicreaders","Piano",1.888888889,4.777777778,3.857142857,4,3.833333333,3.5
"476",506,5648092,"block a","musicreaders","trial",8,4580.5,1,0,"invalid","invalid","musicreaders","musicreaders","Piano",1.888888889,4.777777778,3.857142857,4,3.833333333,3.5
"477",470,5648092,"block b","musicreaders","trial",9,2535.5,1,1,"invalid","invalid","musicreaders","musicreaders","Piano",1.888888889,4.777777778,3.857142857,4,3.833333333,3.5
"478",481,5648092,"block a","musicreaders","trial",9,1516.5,1,1,"valid","valid","musicreaders","musicreaders","Piano",1.888888889,4.777777778,3.857142857,4,3.833333333,3.5
"479",467,5648092,"block b","musicreaders","trial",10,2529.5,1,0,"neutral","neutral","musicreaders","musicreaders","Piano",1.888888889,4.777777778,3.857142857,4,3.833333333,3.5
"480",482,5648092,"block a","musicreaders","trial",10,3429,1,1,"valid","valid","musicreaders","musicreaders","Piano",1.888888889,4.777777778,3.857142857,4,3.833333333,3.5
"481",468,5648092,"block b","musicreaders","trial",11,3744.8,1,1,"valid","valid","musicreaders","musicreaders","Piano",1.888888889,4.777777778,3.857142857,4,3.833333333,3.5
"482",483,5648092,"block a","musicreaders","trial",11,4674.1,1,0,"valid","valid","musicreaders","musicreaders","Piano",1.888888889,4.777777778,3.857142857,4,3.833333333,3.5
"483",469,5648092,"block b","musicreaders","trial",12,1942.1,1,1,"neutral","neutral","musicreaders","musicreaders","Piano",1.888888889,4.777777778,3.857142857,4,3.833333333,3.5
"484",484,5648092,"block a","musicreaders","trial",12,6760,1,1,"valid","valid","musicreaders","musicreaders","Piano",1.888888889,4.777777778,3.857142857,4,3.833333333,3.5
"485",485,5648092,"block a","musicreaders","trial",13,2791.2,1,0,"invalid","invalid","musicreaders","musicreaders","Piano",1.888888889,4.777777778,3.857142857,4,3.833333333,3.5
"486",497,5648092,"block b","musicreaders","trial",13,1916,1,1,"valid","valid","musicreaders","musicreaders","Piano",1.888888889,4.777777778,3.857142857,4,3.833333333,3.5
"487",486,5648092,"block a","musicreaders","trial",14,1668.1,1,1,"valid","valid","musicreaders","musicreaders","Piano",1.888888889,4.777777778,3.857142857,4,3.833333333,3.5
"488",498,5648092,"block b","musicreaders","trial",14,3074.3,1,1,"valid","valid","musicreaders","musicreaders","Piano",1.888888889,4.777777778,3.857142857,4,3.833333333,3.5
"489",487,5648092,"block a","musicreaders","trial",15,1013.6,1,1,"neutral","neutral","musicreaders","musicreaders","Piano",1.888888889,4.777777778,3.857142857,4,3.833333333,3.5
"490",499,5648092,"block b","musicreaders","trial",15,3636.5,1,1,"valid","valid","musicreaders","musicreaders","Piano",1.888888889,4.777777778,3.857142857,4,3.833333333,3.5
"491",473,5648092,"block b","musicreaders","trial",16,3093.7,1,1,"valid","valid","musicreaders","musicreaders","Piano",1.888888889,4.777777778,3.857142857,4,3.833333333,3.5
"492",488,5648092,"block a","musicreaders","trial",16,3331.9,1,1,"valid","valid","musicreaders","musicreaders","Piano",1.888888889,4.777777778,3.857142857,4,3.833333333,3.5
"493",474,5648092,"block b","musicreaders","trial",17,2279.5,1,1,"neutral","neutral","musicreaders","musicreaders","Piano",1.888888889,4.777777778,3.857142857,4,3.833333333,3.5
"494",489,5648092,"block a","musicreaders","trial",17,1695.8,1,1,"valid","valid","musicreaders","musicreaders","Piano",1.888888889,4.777777778,3.857142857,4,3.833333333,3.5
"495",475,5648092,"block b","musicreaders","trial",18,2644,1,1,"valid","valid","musicreaders","musicreaders","Piano",1.888888889,4.777777778,3.857142857,4,3.833333333,3.5
"496",490,5648092,"block a","musicreaders","trial",18,2204.5,1,1,"valid","valid","musicreaders","musicreaders","Piano",1.888888889,4.777777778,3.857142857,4,3.833333333,3.5
"497",476,5648092,"block b","musicreaders","trial",19,3340.5,1,0,"valid","valid","musicreaders","musicreaders","Piano",1.888888889,4.777777778,3.857142857,4,3.833333333,3.5
"498",491,5648092,"block a","musicreaders","trial",19,3862,1,1,"valid","valid","musicreaders","musicreaders","Piano",1.888888889,4.777777778,3.857142857,4,3.833333333,3.5
"499",477,5648092,"block b","musicreaders","trial",20,2628.6,1,1,"invalid","invalid","musicreaders","musicreaders","Piano",1.888888889,4.777777778,3.857142857,4,3.833333333,3.5
"500",492,5648092,"block a","musicreaders","trial",20,4927.8,1,1,"invalid","invalid","musicreaders","musicreaders","Piano",1.888888889,4.777777778,3.857142857,4,3.833333333,3.5
"501",478,5648092,"block b","musicreaders","trial",21,1995.7,1,1,"valid","valid","musicreaders","musicreaders","Piano",1.888888889,4.777777778,3.857142857,4,3.833333333,3.5
"502",493,5648092,"block a","musicreaders","trial",21,1177.8,1,1,"valid","valid","musicreaders","musicreaders","Piano",1.888888889,4.777777778,3.857142857,4,3.833333333,3.5
"503",479,5648092,"block b","musicreaders","trial",22,2799.1,1,0,"valid","valid","musicreaders","musicreaders","Piano",1.888888889,4.777777778,3.857142857,4,3.833333333,3.5
"504",494,5648092,"block a","musicreaders","trial",22,4098.7,1,1,"valid","valid","musicreaders","musicreaders","Piano",1.888888889,4.777777778,3.857142857,4,3.833333333,3.5
"505",480,5648092,"block b","musicreaders","trial",23,5026.3,1,1,"neutral","neutral","musicreaders","musicreaders","Piano",1.888888889,4.777777778,3.857142857,4,3.833333333,3.5
"506",495,5648092,"block a","musicreaders","trial",23,1390.9,1,1,"neutral","neutral","musicreaders","musicreaders","Piano",1.888888889,4.777777778,3.857142857,4,3.833333333,3.5
"507",542,5651758,"block c","nonreaders","trial",1,7296,1,0,"invalid","invalid","nonreaders","nonreaders","Guzheng",3.222222222,2.888888889,2,2.714285714,4.5,2.555555556
"508",550,5651758,"block b","nonreaders","trial",1,2678,1,1,"valid","valid","nonreaders","nonreaders","Guzheng",3.222222222,2.888888889,2,2.714285714,4.5,2.555555556
"509",531,5651758,"block b","nonreaders","trial",2,1884,1,0,"invalid","invalid","nonreaders","nonreaders","Guzheng",3.222222222,2.888888889,2,2.714285714,4.5,2.555555556
"510",543,5651758,"block c","nonreaders","trial",2,5851,1,0,"valid","valid","nonreaders","nonreaders","Guzheng",3.222222222,2.888888889,2,2.714285714,4.5,2.555555556
"511",532,5651758,"block b","nonreaders","trial",3,3302,1,1,"valid","valid","nonreaders","nonreaders","Guzheng",3.222222222,2.888888889,2,2.714285714,4.5,2.555555556
"512",544,5651758,"block c","nonreaders","trial",3,2978,1,0,"neutral","neutral","nonreaders","nonreaders","Guzheng",3.222222222,2.888888889,2,2.714285714,4.5,2.555555556
"513",520,5651758,"block b","nonreaders","trial",4,2652,1,1,"valid","valid","nonreaders","nonreaders","Guzheng",3.222222222,2.888888889,2,2.714285714,4.5,2.555555556
"514",552,5651758,"block c","nonreaders","trial",4,3602,1,0,"valid","valid","nonreaders","nonreaders","Guzheng",3.222222222,2.888888889,2,2.714285714,4.5,2.555555556
"515",521,5651758,"block b","nonreaders","trial",5,3807,1,1,"valid","valid","nonreaders","nonreaders","Guzheng",3.222222222,2.888888889,2,2.714285714,4.5,2.555555556
"516",551,5651758,"block c","nonreaders","trial",5,3605,1,0,"valid","valid","nonreaders","nonreaders","Guzheng",3.222222222,2.888888889,2,2.714285714,4.5,2.555555556
"517",535,5651758,"block b","nonreaders","trial",6,2675,1,1,"invalid","invalid","nonreaders","nonreaders","Guzheng",3.222222222,2.888888889,2,2.714285714,4.5,2.555555556
"518",547,5651758,"block c","nonreaders","trial",6,3336,1,1,"invalid","invalid","nonreaders","nonreaders","Guzheng",3.222222222,2.888888889,2,2.714285714,4.5,2.555555556
"519",523,5651758,"block b","nonreaders","trial",7,3156,1,0,"valid","valid","nonreaders","nonreaders","Guzheng",3.222222222,2.888888889,2,2.714285714,4.5,2.555555556
"520",548,5651758,"block c","nonreaders","trial",7,3071,1,1,"valid","valid","nonreaders","nonreaders","Guzheng",3.222222222,2.888888889,2,2.714285714,4.5,2.555555556
"521",537,5651758,"block b","nonreaders","trial",8,1901,1,1,"valid","valid","nonreaders","nonreaders","Guzheng",3.222222222,2.888888889,2,2.714285714,4.5,2.555555556
"522",538,5651758,"block c","nonreaders","trial",8,4140,1,0,"neutral","neutral","nonreaders","nonreaders","Guzheng",3.222222222,2.888888889,2,2.714285714,4.5,2.555555556
"523",524,5651758,"block b","nonreaders","trial",9,1543,1,0,"valid","valid","nonreaders","nonreaders","Guzheng",3.222222222,2.888888889,2,2.714285714,4.5,2.555555556
"524",526,5651758,"block c","nonreaders","trial",9,2651,1,1,"valid","valid","nonreaders","nonreaders","Guzheng",3.222222222,2.888888889,2,2.714285714,4.5,2.555555556
"525",512,5651758,"block b","nonreaders","trial",10,6406,1,0,"valid","valid","nonreaders","nonreaders","Guzheng",3.222222222,2.888888889,2,2.714285714,4.5,2.555555556
"526",527,5651758,"block c","nonreaders","trial",10,2773,1,1,"valid","valid","nonreaders","nonreaders","Guzheng",3.222222222,2.888888889,2,2.714285714,4.5,2.555555556
"527",507,5651758,"block b","nonreaders","trial",11,3867,1,0,"valid","valid","nonreaders","nonreaders","Guzheng",3.222222222,2.888888889,2,2.714285714,4.5,2.555555556
"528",517,5651758,"block c","nonreaders","trial",11,2853,1,0,"neutral","neutral","nonreaders","nonreaders","Guzheng",3.222222222,2.888888889,2,2.714285714,4.5,2.555555556
"529",513,5651758,"block b","nonreaders","trial",12,2996,1,0,"invalid","invalid","nonreaders","nonreaders","Guzheng",3.222222222,2.888888889,2,2.714285714,4.5,2.555555556
"530",514,5651758,"block c","nonreaders","trial",12,3020,1,1,"valid","valid","nonreaders","nonreaders","Guzheng",3.222222222,2.888888889,2,2.714285714,4.5,2.555555556
"531",515,5651758,"block b","nonreaders","trial",13,1557,1,1,"neutral","neutral","nonreaders","nonreaders","Guzheng",3.222222222,2.888888889,2,2.714285714,4.5,2.555555556
"532",528,5651758,"block c","nonreaders","trial",13,1980,1,1,"valid","valid","nonreaders","nonreaders","Guzheng",3.222222222,2.888888889,2,2.714285714,4.5,2.555555556
"533",508,5651758,"block b","nonreaders","trial",14,2405,1,1,"valid","valid","nonreaders","nonreaders","Guzheng",3.222222222,2.888888889,2,2.714285714,4.5,2.555555556
"534",529,5651758,"block c","nonreaders","trial",14,3097,1,0,"neutral","neutral","nonreaders","nonreaders","Guzheng",3.222222222,2.888888889,2,2.714285714,4.5,2.555555556
"535",516,5651758,"block c","nonreaders","trial",15,1964,1,0,"valid","valid","nonreaders","nonreaders","Guzheng",3.222222222,2.888888889,2,2.714285714,4.5,2.555555556
"536",540,5651758,"block b","nonreaders","trial",15,2434,1,1,"neutral","neutral","nonreaders","nonreaders","Guzheng",3.222222222,2.888888889,2,2.714285714,4.5,2.555555556
"537",541,5651758,"block b","nonreaders","trial",16,1708,1,0,"valid","valid","nonreaders","nonreaders","Guzheng",3.222222222,2.888888889,2,2.714285714,4.5,2.555555556
"538",549,5651758,"block c","nonreaders","trial",16,2868,1,1,"valid","valid","nonreaders","nonreaders","Guzheng",3.222222222,2.888888889,2,2.714285714,4.5,2.555555556
"539",530,5651758,"block c","nonreaders","trial",17,3012,1,0,"invalid","invalid","nonreaders","nonreaders","Guzheng",3.222222222,2.888888889,2,2.714285714,4.5,2.555555556
"540",533,5651758,"block b","nonreaders","trial",17,2191,1,1,"valid","valid","nonreaders","nonreaders","Guzheng",3.222222222,2.888888889,2,2.714285714,4.5,2.555555556
"541",518,5651758,"block c","nonreaders","trial",18,1476,1,1,"invalid","invalid","nonreaders","nonreaders","Guzheng",3.222222222,2.888888889,2,2.714285714,4.5,2.555555556
"542",534,5651758,"block b","nonreaders","trial",18,2034,1,1,"neutral","neutral","nonreaders","nonreaders","Guzheng",3.222222222,2.888888889,2,2.714285714,4.5,2.555555556
"543",519,5651758,"block c","nonreaders","trial",19,1961,1,0,"valid","valid","nonreaders","nonreaders","Guzheng",3.222222222,2.888888889,2,2.714285714,4.5,2.555555556
"544",545,5651758,"block b","nonreaders","trial",19,2534,1,0,"valid","valid","nonreaders","nonreaders","Guzheng",3.222222222,2.888888889,2,2.714285714,4.5,2.555555556
"545",511,5651758,"block c","nonreaders","trial",20,2936,1,1,"valid","valid","nonreaders","nonreaders","Guzheng",3.222222222,2.888888889,2,2.714285714,4.5,2.555555556
"546",546,5651758,"block b","nonreaders","trial",20,2522,1,0,"valid","valid","nonreaders","nonreaders","Guzheng",3.222222222,2.888888889,2,2.714285714,4.5,2.555555556
"547",509,5651758,"block c","nonreaders","trial",21,2855,1,1,"valid","valid","nonreaders","nonreaders","Guzheng",3.222222222,2.888888889,2,2.714285714,4.5,2.555555556
"548",539,5651758,"block b","nonreaders","trial",21,1988,1,0,"neutral","neutral","nonreaders","nonreaders","Guzheng",3.222222222,2.888888889,2,2.714285714,4.5,2.555555556
"549",522,5651758,"block c","nonreaders","trial",22,2593,1,0,"valid","valid","nonreaders","nonreaders","Guzheng",3.222222222,2.888888889,2,2.714285714,4.5,2.555555556
"550",525,5651758,"block b","nonreaders","trial",22,2958,1,1,"invalid","invalid","nonreaders","nonreaders","Guzheng",3.222222222,2.888888889,2,2.714285714,4.5,2.555555556
"551",510,5651758,"block c","nonreaders","trial",23,1626,1,1,"valid","valid","nonreaders","nonreaders","Guzheng",3.222222222,2.888888889,2,2.714285714,4.5,2.555555556
"552",536,5651758,"block b","nonreaders","trial",23,4499,1,1,"valid","valid","nonreaders","nonreaders","Guzheng",3.222222222,2.888888889,2,2.714285714,4.5,2.555555556
"553",553,5659046,"block c","nonreaders","trial",1,14704.8,1,1,"invalid","invalid","nonreaders","nonreaders","voice",3.555555556,4.777777778,1.857142857,5.428571429,5.166666667,4.055555556
"554",567,5659046,"block b","nonreaders","trial",1,3356.2,1,1,"valid","valid","nonreaders","nonreaders","voice",3.555555556,4.777777778,1.857142857,5.428571429,5.166666667,4.055555556
"555",559,5659046,"block c","nonreaders","trial",2,3773.3,1,0,"valid","valid","nonreaders","nonreaders","voice",3.555555556,4.777777778,1.857142857,5.428571429,5.166666667,4.055555556
"556",569,5659046,"block b","nonreaders","trial",2,2990.5,1,0,"valid","valid","nonreaders","nonreaders","voice",3.555555556,4.777777778,1.857142857,5.428571429,5.166666667,4.055555556
"557",555,5659046,"block c","nonreaders","trial",3,2923.1,1,0,"valid","valid","nonreaders","nonreaders","voice",3.555555556,4.777777778,1.857142857,5.428571429,5.166666667,4.055555556
"558",557,5659046,"block b","nonreaders","trial",3,2292.2,1,1,"valid","valid","nonreaders","nonreaders","voice",3.555555556,4.777777778,1.857142857,5.428571429,5.166666667,4.055555556
"559",556,5659046,"block c","nonreaders","trial",4,2041.2,1,0,"valid","valid","nonreaders","nonreaders","voice",3.555555556,4.777777778,1.857142857,5.428571429,5.166666667,4.055555556
"560",558,5659046,"block b","nonreaders","trial",4,1724.5,1,1,"invalid","invalid","nonreaders","nonreaders","voice",3.555555556,4.777777778,1.857142857,5.428571429,5.166666667,4.055555556
"561",562,5659046,"block c","nonreaders","trial",5,1656.8,1,1,"neutral","neutral","nonreaders","nonreaders","voice",3.555555556,4.777777778,1.857142857,5.428571429,5.166666667,4.055555556
"562",574,5659046,"block b","nonreaders","trial",5,2708.8,1,0,"invalid","invalid","nonreaders","nonreaders","voice",3.555555556,4.777777778,1.857142857,5.428571429,5.166666667,4.055555556
